acc_x,acc_y,acc_z,acc,acc1_x,acc1_y,acc1_z,acc2_x,acc2_y,acc2_z,acc_x_std,acc_y_std,acc_z_std,acc_std,acc1_x_std,acc1_y_std,acc1_z_std,acc2_x_std,acc2_y_std,acc2_z_std,acc_max,acc_min,acc_z_max,acc_z_min,acc_fft_sum,acc_fft_0,acc_fft_1,acc_fft_2,acc_fft_3,acc_fft_4,acc_fft_5,acc_fft_6,acc_fft_7,acc_fft_8,acc_fft_9,acc_fft_10,acc_fft_11,acc_fft_12,acc_fft_13,acc_fft_14,acc_fft_15,acc_fft_16,acc_z_fft_sum,acc_z_fft_0,acc_z_fft_1,acc_z_fft_2,acc_z_fft_3,acc_z_fft_4,acc_z_fft_5,acc_z_fft_6,acc_z_fft_7,acc_z_fft_8,acc_z_fft_9,acc_z_fft_10,acc_z_fft_11,acc_z_fft_12,acc_z_fft_13,acc_z_fft_14,acc_z_fft_15,acc_z_fft_16,label
3.433077691,-0.872632813,-0.476233594,6.071189297,11.44338629,-4.94492427,-1.706916156,0.527248672,-0.618133754,12.68789123,5.034960066,2.640442718,1.917045911,3.451491467,5.080490807,3.439400639,1.805220335,3.609197253,2.215044501,4.440375833,15.125138,0.529828,3.6906,-5.3961,21.41217509,12.14237859,0.584881402,0.794823406,0.92377583,1.327674969,3.140210992,0.883079628,2.259484409,0.549112419,1.084766583,0.830505352,0.927236011,0.544636115,0.276009421,0.167452291,0.059723818,0.486527545,11.32489134,0.952467188,0.085329965,0.628120633,0.475791072,0.298726544,1.227530296,0.234872164,1.575164852,0.60456869,1.000076109,0.298938622,0.221032237,0.15210354,0.096255588,0.724962758,0.042087152,0.253862212,0
4.512813633,-1.524171094,-0.592089063,7.025222074,12.00377914,-6.241384523,-1.459265941,0.834183238,-0.969755477,13.71642591,5.409326305,2.750399961,2.156260182,3.885395954,5.465989575,3.847702433,2.161511664,4.448268573,2.808452337,4.135642313,16.00347,1.070282,7.0133,-5.7769,20.85571198,14.05044415,0.080308059,0.958716236,0.772697715,0.556320709,3.979458085,1.26970342,1.991466428,0.514023402,0.713218845,1.755910519,0.503323502,0.851005197,0.200921428,0.32430818,1.121857715,0.407320207,14.18179591,1.184178125,0.524347891,0.469057542,0.609271977,0.728077769,1.79288801,0.199358139,1.069112906,0.363391421,0.256934502,0.656080271,0.902402373,0.647597707,0.616596036,0.611726594,0.635300382,0.278605986,0
4.290132,-1.778467574,-0.428385938,6.96280568,12.07545558,-6.041767934,-1.353621789,0.054449793,-0.632754125,13.7686562,5.10181308,3.074532779,2.171708,3.661218271,5.360467878,3.885542074,2.168416065,4.253930538,2.634413974,4.206486836,16.00347,1.070282,7.0133,-5.7769,19.68541165,13.92561136,0.160481677,0.455711554,0.905945739,1.120286605,3.709250502,0.518554192,2.047382777,0.480611112,0.692700421,1.577495562,0.570618946,1.001261984,0.487946661,0.850197321,0.4694278,0.211824114,13.05256048,0.856771875,0.317156086,0.891214775,0.64527872,0.459399865,1.619735334,0.369303192,0.757416205,0.826931574,0.152186454,1.391037307,0.791456742,0.543922506,0.486969577,0.60013192,0.375587468,0.193029571,0
4.397946824,-2.232985152,-0.533967969,7.113512117,12.12124468,-6.528239828,-1.502511187,-0.413334664,-0.754496477,14.04433974,5.097627264,3.117013604,1.463422558,3.440226924,5.500255435,3.762049187,1.524202824,4.392933133,1.993865577,4.157932319,15.80766,1.071733,1.9378,-5.3196,18.19576204,14.22702423,0.399302082,0.644414097,0.910787503,0.91663151,3.67041629,0.470338288,1.631686972,1.054145504,0.897883357,0.877330106,0.198688802,1.062920897,0.316036419,0.651979229,0.454777721,0.104830997,9.565818702,1.067935938,0.083690386,0.688606067,0.750933021,0.54651058,1.069479481,0.269127723,0.505511317,0.395292219,0.34846642,0.599002956,0.124037051,0.279572598,0.096542164,0.476495221,0.444506896,0.110714776,0
4.021226102,-1.690797648,-0.577751172,6.870690484,11.53960327,-6.341941,-2.036118902,-0.008425824,-0.892514707,13.41879139,5.345827842,3.241795541,1.91271199,3.860316631,5.718964803,3.581267383,1.840540239,4.199495708,2.668087166,4.564317388,17.255742,0.856865,2.9604,-6.5371,22.55266957,13.74138097,0.39046208,0.797043346,0.814406366,0.366626239,4.136747341,0.590886315,1.440082397,1.3208559,0.854487115,0.973152327,0.22240153,1.291659909,0.626987069,0.862177546,0.806251341,0.078749876,16.74168735,1.155502344,0.132094889,0.535695157,0.529135376,0.517274083,1.302375523,0.524425609,0.760089453,0.943261663,0.625491679,0.82708972,0.31810529,0.168663741,0.684524118,0.385842129,0.543376638,0.238309313,0
3.528519082,-2.102947648,-0.464514844,6.722913531,11.04774445,-6.929867164,-1.705270133,-0.540292609,-0.82018298,13.2133984,5.274429119,2.965996364,2.106476702,3.597919285,5.610075552,3.243556241,1.928656831,4.075180165,2.667830115,4.406138824,17.255742,0.856865,4.4638,-6.0465,23.87597465,13.44582706,0.597628335,0.494516676,1.384167205,0.990879566,3.375766342,0.136836044,1.730431325,1.059084946,0.661944528,0.935503791,0.253231142,0.914032256,0.735600021,1.21738654,0.845183668,0.205383918,12.69044179,0.929029688,0.191866894,0.458967431,0.407918145,0.500149477,1.166840233,0.105107437,1.955932148,1.056857331,0.639452558,0.436901228,0.279242183,0.671971062,0.081446761,0.263663559,0.369650905,0.283071368,0
4.867528426,-2.678852711,-0.625707812,8.618785746,12.15431452,-7.244704676,-2.020556586,-0.348144949,-0.907905988,14.44964524,6.475392563,4.255864097,2.064843551,4.61343608,6.863537017,4.849410014,1.991996685,5.549503372,2.662710564,5.59141891,21.68173,0.574865,4.7734,-6.1271,23.47607775,17.23757149,0.154117762,1.028323908,0.59697271,1.020206642,5.141167014,0.665208861,1.777762807,0.775063653,1.716154292,1.719197686,0.020638366,1.068697419,0.464230478,0.937443506,0.443748455,0.285402533,13.49287618,1.251415625,0.229205657,0.591272675,0.420597099,1.188736764,0.985381756,0.528974753,1.502040249,0.296895131,0.596441577,0.900279867,0.309865661,0.689642939,0.394903563,0.342702139,0.677756699,0.249713384,0
4.092933512,-2.560939043,-0.782351172,7.985134582,11.11074187,-7.684040734,-2.208950324,-0.369341793,-1.066495543,13.92169963,6.558501205,3.929692265,1.597929902,4.601087949,7.048860182,4.372096733,1.514795895,5.148005048,2.222955167,5.651350387,20.693028,0.574865,2.3477,-5.842,23.5307371,15.97026916,0.557101666,1.616519158,0.274516321,0.478458295,4.976576851,0.278738725,1.896966087,1.337681875,0.317800583,2.129565038,0.540907423,1.215768402,0.699626817,0.259991427,0.935223074,0.370691566,10.30537603,1.564702344,0.126050169,0.473903349,0.469028824,0.32086935,1.084506172,0.297840162,0.691707962,0.872920477,0.009339638,0.458057013,0.377163223,0.615516266,0.155892129,0.299261909,0.954299231,0.193633987,0
3.942076129,-2.158962883,-0.565826172,6.931687531,11.56997969,-6.64809959,-1.696890453,-0.640760059,-0.907280902,13.614707,5.149251286,3.234451682,2.023651157,3.680296235,5.602721385,3.614811248,2.048574231,4.256303791,2.394581606,4.376183101,15.646618,0.234344,2.9416,-6.5122,18.30026923,13.86337506,0.076605504,0.518496112,0.733344625,0.8392841,4.035212232,0.224252468,1.869092215,1.403890534,0.678518394,1.27416078,0.193969722,0.708126842,0.428001612,0.222959285,0.433043279,0.102217489,12.17347826,1.131652344,0.168379017,0.547227276,0.953375588,0.244407405,0.250932274,0.270192956,1.773504154,0.864762806,0.513454233,1.136562727,0.486531014,0.357995535,0.375667892,0.326517206,0.383465282,0.226099491,0
3.15653434,-1.611743359,-0.424148828,6.514856395,10.51428636,-6.538115914,-1.525405785,-0.390523367,-0.771526809,12.72136221,5.363036823,2.989084433,1.874058356,3.392175731,5.841772541,3.462576964,1.854512448,4.064448651,2.361875996,4.527690703,14.8346,0.438251,2.9416,-6.5122,18.22851362,13.02971279,0.586964004,0.82054147,0.534289263,1.090502736,3.467731423,0.337667976,1.755763452,0.559788388,0.650374352,1.619762465,0.482045741,0.849869593,0.157635561,0.416641969,0.353601584,0.055108979,12.71985386,0.848297656,0.287585306,0.836627234,0.53086044,0.288434812,0.618611953,0.346541962,1.299589091,0.935273989,0.675740413,0.909726078,0.419493217,0.360407227,0.22399771,0.516967591,0.463034167,0.15133135,0
4.067274129,-1.448309375,-0.656222266,7.107146895,11.2931501,-6.528838387,-1.887828066,0.493536617,-1.108589773,13.32712461,5.753177312,3.094428575,1.871875067,3.838992227,6.097075303,3.683717879,1.825898294,4.332334545,2.464011413,4.88647113,16.420357,0.440712,1.8919,-6.3585,20.42771918,14.21429379,0.2531458,1.010969475,0.782172308,1.174732216,3.916324963,0.738492223,2.358667582,0.515591978,0.756420365,1.429855165,0.384535835,0.842422602,0.302491063,0.509329989,0.313378719,0.132960863,12.25452663,1.312444531,0.139014913,0.713620941,0.424098409,0.314053938,0.963311811,0.211070574,1.548165018,0.522009082,0.847798369,0.551938526,0.304797625,0.599834425,0.351947427,0.37850216,0.387496177,0.411600045,0
3.891667516,-1.914508199,-0.510859375,7.049554453,11.60125401,-6.251260621,-1.653495512,-0.620261273,-0.882154313,13.45227195,5.45324699,3.334839355,1.629639283,3.590258436,5.87826648,3.675386584,1.656640738,4.156760119,2.179188044,4.801488139,15.866187,0.836794,2.0011,-5.6098,20.09926095,14.09910891,0.683268224,0.458072272,0.940444288,0.695343225,3.93093724,0.957936429,1.174630531,1.471993537,0.526285565,1.249334063,0.316365779,0.654658996,0.744711622,0.231791696,0.518576855,0.286531067,11.26400065,1.02171875,0.129041957,0.480532765,0.931733445,0.203155853,0.599641731,0.610493937,1.20348051,0.456684326,0.350859046,0.724138615,0.13551867,0.239844697,0.287139555,0.415750346,0.622178488,0.138378917,0
3.386705824,-1.295448437,-0.354108203,5.808323418,11.41360842,-5.299715121,-1.594538309,-0.281310434,-0.526174816,12.83322279,4.258400877,2.835870398,1.912515457,3.061141543,4.655556019,3.208262461,1.904135596,3.574695829,1.982565759,3.838782709,12.483341,0.910294,3.2106,-5.7364,16.95933553,11.61664684,0.322538479,0.448256055,0.67072706,0.542469393,3.088960112,0.74297821,2.107541364,0.574196256,0.561115216,1.06427364,0.411370959,0.572900638,0.145091793,0.510196468,0.16296337,0.047431028,11.63226428,0.708216406,0.225724718,0.769108449,0.602564032,0.532956585,0.2032192,0.382285253,1.719359822,0.468853125,0.276089542,1.170414217,0.490262078,0.254123243,0.350588359,0.424922345,0.161237761,0.369522905,0
3.330137844,-1.00469375,-0.523898828,5.650621063,11.31649357,-5.084536215,-1.854608496,0.063717414,-0.701607707,12.70347134,4.394740072,2.671917558,1.694546337,3.125467725,4.701872086,3.14830546,1.749219736,3.439693549,1.898531193,3.88838906,13.170702,0.621183,2.7823,-5.2004,16.37271298,11.30124213,0.432464498,0.086740661,0.974132462,0.822732098,3.096433789,0.584024174,2.216041923,0.447518971,0.733916565,1.000160801,0.173722281,0.50659925,0.323736609,0.367661943,0.173033605,0.087301395,13.58786595,1.047797656,0.178027707,0.738672506,0.42611376,0.4014066,0.612715567,0.165523101,1.221862544,0.682625322,0.839494109,0.692891296,0.218942811,0.093494116,0.337815992,0.32337859,0.524155945,0.187243377,0
3.251847227,-0.777955859,-0.520858984,5.341696707,11.15249079,-5.147683273,-1.79340668,0.56553273,-0.730173137,12.51959226,4.215000477,2.220711775,1.506825033,2.808132115,4.360058521,2.935473124,1.532027888,3.22491902,1.796289331,3.583911923,12.095894,0.480841,1.9313,-4.3462,16.7932485,10.68339341,0.338623207,0.402980668,0.095314942,0.368909317,2.992113103,0.963510054,1.571987365,0.85963702,0.325226523,0.715789246,0.185145846,0.745799944,0.203452307,0.157610696,0.485353988,0.153355265,10.63352426,1.041717969,0.069249912,0.658221723,0.567161451,0.301316024,0.907312094,0.372296037,0.534213406,0.850059086,0.711340834,0.437031963,0.426639042,0.512010193,0.128664856,0.269102158,0.32896293,0.207932832,0
2.473531227,-1.437454297,-0.295180859,5.423784008,10.34235284,-5.929689406,-1.445948148,-0.612736523,-0.416860605,12.13886632,4.238588241,2.471389741,1.873822292,2.537505897,4.656176276,2.665220808,1.790402705,3.355704517,1.956244445,3.635412804,11.345813,0.663588,3.1268,-5.5912,15.20813602,10.84756802,0.217621862,0.487354555,0.376332918,0.544006614,2.615530419,0.315726931,1.423297148,0.923382057,0.426287228,0.66465764,0.194666893,0.688497224,0.331146983,0.454237146,0.316208089,0.245228076,10.99525896,0.590361719,0.296728871,0.520554158,0.260341351,0.414864811,0.20846287,0.288730754,1.826614577,0.661665794,0.602029535,0.753125777,0.50168845,0.912838743,0.172618587,0.244719136,0.367113347,0.043342015,0
3.248976137,-1.224967578,-0.454241406,5.682758613,10.68936239,-6.285228367,-1.445798531,0.36163668,-0.69080702,12.60881448,4.273328759,2.337245366,2.044781084,2.806094096,4.537483128,3.025438923,1.97062289,3.529236349,2.416324181,3.405577009,13.266793,0.721128,3.1268,-5.5912,15.94499477,11.36551723,0.363048488,0.363514973,0.824310998,0.985708553,2.647171524,0.602896898,1.709387056,0.231456769,0.572547659,1.129076397,0.228077965,0.711191943,0.333692088,0.302675922,0.760294846,0.269316012,12.11970155,0.908482813,0.250675762,0.543629961,0.358650957,0.203896644,0.606201135,0.582872636,2.016634272,0.856182845,0.493571925,0.601474109,0.448905031,0.776828361,0.284506307,0.422474962,0.517129958,0.118501979,0
3.639480059,-1.489114063,-0.434577344,5.895060777,11.58688877,-5.648520352,-1.547252871,-0.197807836,-0.507546238,13.16278132,4.059050182,2.748375489,1.74536068,2.82420432,4.44149506,3.323720661,1.760978789,3.491713921,2.073638267,3.518980454,11.621978,1.150437,2.6516,-5.4429,15.78497213,11.79012155,0.270408956,0.595567039,0.645670403,1.012812552,2.94255696,0.594316544,1.621311007,0.569305653,0.557220714,0.630260003,0.464441168,0.705038042,0.326776143,0.502926513,0.168915562,0.14814026,10.89099697,0.869154688,0.158629364,0.659349672,0.566796355,0.552507991,0.873009341,0.191735581,1.471039638,0.722047009,0.173819196,0.743137772,0.440837883,0.265623415,0.379171578,0.333836823,0.218300133,0.108781777,0
3.25332927,-1.724760547,-0.398210547,6.098489055,11.15787778,-5.956324895,-1.462557984,-0.703679102,-0.533487125,12.86970749,4.637204101,2.738039031,1.708154831,2.905901577,4.99649007,3.111052933,1.722114744,3.652830761,2.185277502,3.898282747,12.977356,0.729465,2.8288,-4.9733,15.83050166,12.19697811,0.591851205,0.486477095,0.445894111,0.606558071,3.08654756,0.750043889,1.496614264,1.076850517,0.913808532,0.700840004,0.322987728,0.463307028,0.405105708,0.284798519,0.02909799,0.102036775,12.01788311,0.796421094,0.180650838,0.673633978,0.634811207,0.259972074,0.745051367,0.649703164,1.196048833,0.281563506,0.69452485,0.627282928,0.740918847,0.399068319,0.020629728,0.445039174,0.50868039,0.299000203,0
2.985603871,-1.342304687,-0.335925,6.008034145,10.57055009,-6.030694797,-1.310376516,-0.231897387,-0.578047941,12.42987629,4.958181671,2.610692307,1.755309818,3.035189425,5.283391852,3.235469891,1.740945266,3.82324302,2.399882187,3.996238261,13.457805,0.729465,3.4083,-5.0435,16.68447435,12.01606829,0.454002991,0.675842401,0.510192943,1.067217712,2.922261639,0.199060806,1.929314851,0.562443826,0.510335922,1.482966769,0.202356167,0.775656038,0.124624532,0.366979413,0.326294989,0.220588552,11.37963552,0.67185,0.279415748,0.63837778,0.453564864,0.482407119,0.47172264,0.211519087,1.307781645,1.076959101,0.549600747,0.767644763,0.301729819,0.465662868,0.157236348,0.505695338,0.509100788,0.083409546,0
3.5271695,-1.015610156,-0.447417578,6.000760289,11.10490598,-5.7095725,-1.470339094,0.306293594,-0.762842961,12.69743562,4.64964718,2.532331875,1.817000498,2.99947657,5.000541666,3.135848069,1.791279693,3.722699848,2.550121326,3.723636287,13.457805,0.868481,3.4083,-5.0435,16.33587238,12.00152058,0.169065441,0.41448176,0.438173967,0.412026916,3.046694258,1.006768801,1.894929391,0.141454788,0.586753375,1.225763932,0.624215127,0.639670785,0.447586675,0.438618601,0.160811961,0.338038645,11.15132136,0.894835156,0.126845257,0.543549543,0.547977015,0.557597148,0.636362545,0.12916157,1.780032305,0.687030183,0.450749473,0.631540249,0.214087173,0.373271574,0.20348986,0.483197028,0.249348739,0.174260288,0
3.459698809,-0.884333594,-0.555639844,5.742882539,11.40687467,-5.052513777,-1.578826336,0.280601613,-0.684856945,12.73632628,4.099938293,2.613450337,1.878722098,2.692361197,4.37716308,3.34489961,1.911156677,3.542513862,2.419922136,3.312190901,12.426661,0.868481,3.2483,-4.9389,14.43546404,11.48576508,0.454444717,0.304494913,0.429996109,0.133994963,2.821488194,0.379673484,1.534415007,0.48318553,0.468947447,1.443349021,0.177994937,0.469550138,0.09322781,0.217014746,0.425859067,0.108044115,11.54473334,1.111279688,0.407034427,0.780839565,0.401634768,0.064073778,0.198263326,0.513888544,1.751008742,0.625534844,0.723792333,0.443981169,0.586044736,0.384881193,0.249870373,0.448295873,0.66135895,0.215291074,0
3.43856716,-1.371367969,-0.313218359,5.75768782,11.51940217,-5.261108613,-1.358110898,-0.334540195,-0.390616465,12.92848853,3.996123895,2.775112263,1.799198209,2.749345006,4.345280585,3.41587183,1.845414639,3.533083551,2.270398071,3.335843785,12.425263,0.841468,3.2483,-4.4215,16.86159378,11.51537564,0.607941246,0.447692843,0.150556289,1.000107878,2.604676384,0.846616337,1.323020113,0.502762867,1.081853944,0.903594877,0.526258586,0.875388533,0.450726978,0.463875342,0.082376375,0.182140916,11.49521687,0.626436719,0.211604791,0.595626147,0.454688323,0.397729145,0.45306801,0.521427906,1.441460734,0.172890051,0.307830996,0.98230858,0.698021581,0.397988511,0.45575499,0.733267716,0.550716417,0.23192455,0
3.099731215,-1.609687109,-0.321711719,5.991498488,11.0323318,-5.853374254,-1.340752969,-0.720729223,-0.387601723,12.69579831,4.562424963,2.689722339,1.797061644,2.77211601,4.975465076,3.021041298,1.688250073,3.534583829,2.356910563,3.821360147,12.425263,0.841468,3.0239,-5.1817,15.43606559,11.98299698,0.300445187,0.688395564,0.103222671,0.47657618,2.883542359,0.399918831,1.429202661,0.919069902,1.092483132,0.871944792,0.164710348,0.720837016,0.149354683,0.498852541,0.311608198,0.079254694,11.50395031,0.643423438,0.228508416,0.493197758,0.311330147,0.201242442,0.549614746,0.356426538,1.610101281,1.010036912,0.380354357,0.64908992,0.179707349,0.673371984,0.130677071,0.47099394,0.394423403,0.451510405,0
2.927785918,-1.270757422,-0.375944531,5.699274203,10.60406895,-5.990741578,-1.316362008,-0.166221363,-0.488965566,12.40965996,4.50595563,2.39556652,2.004699394,2.812037617,4.843051867,2.949340449,1.912859613,3.414176058,2.51631249,3.691349342,11.63133,1.105969,3.0239,-6.0209,16.87176148,11.39854841,0.648003023,0.626967321,0.719508666,0.660025926,2.606202455,0.224511654,1.762891736,0.290027193,0.10799473,1.208883346,0.324304239,1.144775589,0.303025719,0.46711046,0.429624797,0.26993148,12.41605631,0.751889063,0.108408483,0.527558725,0.341994548,0.178521793,0.497069888,0.514130379,2.013290315,1.02907828,0.199506767,0.483032063,0.279070744,0.885690858,0.317145978,0.343365571,0.494809738,0.156620125,0
3.519640227,-0.958003125,-0.561758203,5.590291594,11.27654036,-5.553350844,-1.606658965,0.269568598,-0.837864859,12.7708284,4.058330517,2.324473708,1.987784703,2.862579346,4.32874697,2.916104036,2.023903698,3.222633398,2.626379159,3.281363202,11.63133,0.913904,3.0141,-6.0209,16.26903122,11.18058319,0.188693805,0.934747386,0.982932176,0.64664638,2.596787538,0.727908938,1.998576921,0.189790454,0.683029483,0.659466726,0.217173017,0.862627396,0.191576286,0.647372404,0.476370877,0.248216176,11.60161937,1.123516406,0.151311391,0.806795898,0.67437068,0.130068998,0.832926608,0.362877528,1.855499504,0.592804867,0.957617914,0.080498092,0.347666526,0.621933121,0.381574505,0.358500916,0.417013703,0.062522925,0
3.540110914,-0.840061328,-0.715676953,5.552479512,11.56324604,-4.944924316,-1.909824777,0.088184789,-0.829370883,12.86840101,3.963166389,2.359213495,1.76407338,2.702736167,4.233458869,2.974169177,1.96400386,3.123130372,2.309149912,3.325062212,11.058372,0.913904,2.9608,-5.519,15.59501297,11.10495902,0.151563942,0.746894015,0.885455618,0.946355246,2.360758271,0.713722599,1.963424352,0.741885749,0.424153744,0.608588625,0.104933999,0.688420656,0.229004149,0.581080248,0.351966904,0.119997876,12.63720944,1.431353906,0.581806246,1.210520848,0.342999099,0.265132978,0.785514642,0.173223456,1.341268097,0.519102101,0.44881941,0.670313074,0.320293018,0.257908764,0.225146375,0.339714568,0.201339124,0.098051719,0
3.61403668,-1.445783984,-0.405882031,5.71618793,11.65661989,-5.395333504,-1.558475656,-0.527520934,-0.607638996,13.14003286,3.907412026,2.563070842,1.651536888,2.684448137,4.290243086,3.104516015,1.952863574,3.370028886,1.946488403,3.289264036,11.058372,0.793557,2.738,-4.7955,14.92464731,11.43237586,0.263637183,0.717458906,0.555400514,0.943322212,2.60035733,0.547459776,1.772009274,0.558992144,0.675718108,0.72112759,0.290035993,0.651709921,0.185250829,0.246651227,0.342421991,0.15361351,10.15715056,0.811764063,0.325857876,0.983113311,0.900534352,0.399650387,0.685189665,0.495523923,1.020951186,0.213105925,0.233092139,0.960848082,0.295858449,0.272812012,0.163816965,0.444543758,0.100068815,0.053304095,0
3.13382575,-1.547786719,-0.3929625,5.766682395,11.08186179,-5.791723527,-1.497573145,-0.76906516,-0.706013473,12.73391183,4.284024073,2.574892287,1.71606694,2.654075669,4.647935842,2.895158804,1.846744072,3.471007671,1.981433588,3.57404031,11.937857,0.76988,2.8986,-5.0436,14.12595436,11.53336479,0.306250975,0.81147611,0.580269619,0.047052816,2.806226867,0.499635207,1.3127147,0.847123584,0.877237847,0.777373406,0.20397473,0.489609141,0.313902252,0.599760008,0.250957684,0.157939378,10.78039099,0.785925,0.33458808,1.062314997,0.577189972,0.460313447,0.833141302,0.232907803,1.14371076,0.483606805,0.868841678,0.611540243,0.343174291,0.269738342,0.220742103,0.290967462,0.236015836,0.281929603,0
3.019355828,-1.193826953,-0.448539453,5.549869727,10.72856746,-5.858761184,-1.462707602,-0.112546664,-0.700609754,12.48485032,4.42672332,2.292423587,1.644337235,2.738027494,4.741819035,2.876274542,1.723785939,3.44949054,2.011138259,3.602405635,11.996281,0.636057,2.8986,-5.0436,16.92421238,11.09973945,0.581260986,1.130716679,0.188642514,0.999210615,2.407371018,0.287258681,1.444645567,0.532391918,0.410786508,1.261090945,0.555026841,1.012406576,0.163028824,0.653567738,0.413770938,0.074477865,11.45912292,0.897078906,0.229783962,0.67890827,0.612024705,0.365217991,0.756781509,0.195806786,1.217371655,0.633994904,0.628933617,0.464488997,0.468207806,0.45731516,0.289402637,0.348529045,0.453036069,0.246891958,0
2.317962488,-0.777599609,-0.417457422,4.629642637,10.26319442,-5.082890207,-1.572242309,-0.109876746,-0.544825297,11.75610201,3.659312022,1.875304733,1.563953147,2.017813584,3.931889546,2.650870019,1.665191844,2.983554796,1.787733012,2.878919718,9.339314,0.636057,2.5019,-4.2881,14.33458399,9.259285273,0.302483607,0.844402409,0.437752018,0.393750091,1.635887041,0.327952221,1.265523555,0.533341226,0.138142386,0.706369966,0.631732866,0.713471912,0.268546961,0.396170985,0.316206697,0.119111769,11.34041145,0.834914844,0.242803484,0.674521827,0.583737159,0.249494113,0.873473824,0.18109114,1.013788516,0.249602452,0.707225512,0.697244947,0.495672674,0.330768582,0.037714289,0.219525631,0.211473487,0.305529909,0
2.810697645,-0.841035156,-0.408336719,4.703754676,11.07213536,-4.485087973,-1.851166812,-0.161104387,-0.398284121,12.24398112,3.426660215,2.149135359,1.443414815,2.256772056,3.73337561,2.724163139,1.492358179,2.824040288,1.715185563,2.950352463,10.070216,0.768946,2.5019,-4.6554,13.90694566,9.407509352,0.385061082,0.557831451,0.382943539,0.573313125,2.001661749,0.644645312,1.643412084,0.534377426,0.339074102,0.753851167,0.092858429,0.531927013,0.365678386,0.387084451,0.247729737,0.071320267,9.927504963,0.816673438,0.170141971,0.579548076,0.444895828,0.400749604,0.855859105,0.127359775,0.952811557,0.275406612,0.12783758,0.761180008,0.578842214,0.254026342,0.293771557,0.390205584,0.150720521,0.090113969,0
2.789876156,-1.339989453,-0.424133203,5.27558316,10.8752123,-5.3490955,-1.698985387,-0.548829145,-0.459389516,12.37133448,4.103533672,2.320282762,1.49893804,2.529151324,4.432228158,2.737957007,1.454245237,3.083290324,1.871787181,3.528890212,11.78193,0.768946,1.9342,-4.2499,15.26949543,10.55116632,0.641712921,0.582393527,0.352264058,0.450169979,2.524404462,0.705633662,1.446846838,0.749096442,0.673731053,0.598495576,0.191493698,0.724697975,0.238600655,0.384204178,0.069270539,0.128909665,9.771237052,0.848266406,0.026755126,0.360809334,0.697424188,0.187634728,0.815267306,0.399414657,1.120471451,0.400662192,0.502726998,0.678322865,0.293849836,0.357606,0.276516491,0.42939024,0.139455945,0.200608296,0
2.567984758,-1.257637891,-0.324576563,5.360100309,10.31526834,-5.856965539,-1.440710871,-0.332089613,-0.396097637,12.16086105,4.337362692,2.465143859,1.617651217,2.656561071,4.739126969,2.994703405,1.538894344,3.270114861,1.946079622,3.734384957,11.78193,0.794549,2.0451,-5.0745,15.64763069,10.72020062,0.606757363,1.021602149,0.775264424,0.812217028,2.515068409,0.290034576,1.522860558,0.600906664,0.132083589,0.976904424,0.256556191,0.788635843,0.066665196,0.150127538,0.363816909,0.156022154,10.10381828,0.649153125,0.213060711,0.521982381,0.148169138,0.41682948,0.616847208,0.529353473,1.193558855,1.072996971,0.207430604,0.592223128,0.162775729,0.643402821,0.271914516,0.156910043,0.405224859,0.096253021,0
3.385660152,-0.999991016,-0.506491797,5.576205277,11.06704766,-5.665579043,-1.620724898,0.277469375,-0.680216969,12.70170964,4.042421106,2.466708561,1.680890284,2.622280568,4.462029286,3.053533108,1.653124127,3.360202269,2.129058865,3.387433539,11.128458,0.917102,2.0451,-5.0745,13.92694959,11.15241055,0.307877126,0.733301817,1.049220349,0.630347347,2.511005376,0.507827598,1.596711328,0.193626493,0.548376628,0.969665973,0.288385922,0.765054064,0.166480096,0.264389256,0.510776992,0.037897489,10.52694394,1.012983594,0.097569741,0.496403201,0.516032774,0.125099121,0.864602744,0.445028197,1.545208793,0.61643654,0.39204544,0.358687919,0.135970179,0.553638439,0.318719722,0.151369317,0.514190565,0.185362608,0
3.589356629,-0.664247266,-0.679512109,5.435612105,11.61906084,-4.698920098,-1.947683055,0.477905234,-0.750096793,12.83194946,3.679869617,2.349693175,1.580225028,2.408354502,3.988683227,3.137280553,1.58855193,3.284353533,2.06402305,2.941832488,11.128458,0.917102,2.1607,-4.972,13.59486167,10.87122421,0.664770224,1.005071382,0.918979116,0.675456985,2.022186409,0.54644533,1.537215627,0.298139437,0.620494972,0.812182514,0.127566261,0.571727806,0.190326379,0.57733176,0.083967159,0.297631757,10.31972409,1.359024219,0.326185363,0.923834088,0.304690375,0.374833192,0.672210196,0.410500674,1.31803859,0.31424477,0.372338059,0.319423464,0.208859827,0.575962921,0.277554001,0.529308743,0.141894126,0.21121161,0
3.273105066,-1.048899219,-0.44056875,5.153339852,11.47047068,-4.727201602,-1.831713918,-0.242375371,-0.32867784,12.71618329,3.343144472,2.378078346,1.632315576,2.2241672,3.776102295,2.93146077,1.719707534,3.200048698,1.938785329,2.686227805,9.998677,0.810857,2.5998,-5.6186,12.9822833,10.3066797,0.279342448,1.288251267,0.828040093,0.557770895,1.730595264,0.278108676,1.358171612,0.362309739,0.649872182,0.622831454,0.454217505,0.556280325,0.118662994,0.507597338,0.545777333,0.172486766,10.53931291,0.8811375,0.189968567,0.655444848,0.519625076,0.375078087,0.40879442,0.190769768,1.553268685,0.384601697,0.451949205,0.408892992,0.242573116,0.598697933,0.182211856,0.682778278,0.222562271,0.217702722,0
2.817314445,-1.444814063,-0.451448437,5.16612375,10.86937641,-5.552752293,-1.719934633,-0.742049555,-0.456570562,12.43771059,3.782231941,2.237074459,1.722893866,2.412024419,4.14894844,2.509047351,1.815451259,3.105650048,2.078587063,3.052573665,10.270836,0.810857,2.5998,-5.6186,15.04010469,10.3322475,0.513209711,1.013249588,0.806970554,0.239211135,1.977891695,0.860862218,1.557765007,0.603104301,0.467947536,0.748678488,0.223669878,0.659629221,0.491000089,0.523985521,0.223001529,0.208695943,12.00193814,0.902896875,0.279516911,0.762504736,0.801899191,0.329093602,0.873155512,0.224706589,1.277912967,0.55810099,0.544372592,0.395886913,0.368682441,0.712064364,0.096109789,0.225075069,0.517400075,0.199776533,0
2.828582398,-1.341227734,-0.496889062,5.387962949,10.48301214,-6.03219118,-1.715146223,-0.234273141,-0.652414715,12.41387605,4.328607653,2.234232579,1.671776151,2.7459057,4.621411997,2.973316821,1.706504708,3.328909431,2.14141021,3.475729874,11.984868,0.27815,2.1769,-5.9465,20.16465402,10.7759259,0.36322121,0.973914122,0.177185546,0.673919554,2.400229894,0.33788317,1.097974927,1.451812792,0.234178087,0.898230217,0.727515511,1.025138226,0.46488008,0.259067695,0.559836338,0.320492195,11.54976746,0.993778125,0.166884103,0.685510362,0.673382982,0.172097087,1.238777133,0.185342657,1.136215043,0.593948742,0.203721658,0.559301456,0.236307685,0.225711293,0.455809416,0.447845758,0.352563391,0.083678332,0
3.924378871,-1.006139844,-0.723388281,5.863135359,11.77094304,-5.297919422,-2.059611977,0.53899109,-0.854714762,13.21025529,4.19877209,2.482856456,1.578500724,2.974210474,4.438685541,3.317812348,1.572117386,3.447324035,2.196342515,3.436067057,12.177226,0.27815,1.6908,-5.9465,18.25526239,11.72627072,0.163955398,0.496916407,0.697126029,0.724070021,3.014221424,0.723593373,1.687456913,0.420250633,0.138772027,0.614861927,0.415340192,1.082231018,0.442970858,0.415559856,0.749846615,0.347132165,10.82664562,1.446776563,0.359574839,0.710172369,0.141272229,0.203656929,1.020626538,0.391442209,0.62351781,0.608325877,0.772246602,0.224936956,0.120631421,0.823535156,0.180230305,0.424084806,0.541931272,0.184308502,0
3.799533191,-1.155795313,-0.690644531,5.789598406,11.46463481,-5.757456539,-1.848024395,0.480576391,-0.88026541,13.12527505,3.857769806,2.364312672,1.773110247,2.51915383,4.184167173,3.243025039,1.818507675,3.704847178,2.215165697,2.724200974,11.577417,1.31684,3.2188,-5.1393,14.06171184,11.57919681,0.076761527,0.383722247,0.909042137,0.547673839,2.289203232,0.632325608,1.47746467,0.492434973,0.098519023,0.775764217,0.254511799,1.091104806,0.171383585,0.432994686,0.935442311,0.147280231,11.2359858,1.381289062,0.325396859,0.79329209,0.419342582,0.160566849,1.093807452,0.380774611,1.326471048,0.713134732,0.58627813,0.254596784,0.378851938,0.630750677,0.117761941,0.157246473,0.463098888,0.287846601,0
3.65832773,-1.085648438,-0.579495313,5.627567121,11.66514924,-5.071368133,-1.890970406,0.18317777,-0.659181523,13.04548706,3.723290067,2.397272823,1.60128484,2.324266445,4.043090013,3.230129239,1.67261887,3.584495728,1.944530372,2.768682239,11.758507,2.282735,3.2188,-4.6882,13.75789172,11.25513424,0.284446753,0.339304856,0.925114688,0.510307956,2.298723858,0.442808831,1.043071495,0.534115501,0.576324266,0.761074877,0.238927607,0.769122114,0.220484137,0.415703795,0.565934832,0.399566782,11.80144501,1.158990625,0.088366809,0.775833749,0.527915295,0.350381167,0.904536248,0.423703072,1.073249558,0.30575581,0.47809596,0.711634788,0.443479121,0.27802886,0.03753308,0.363547072,0.36893718,0.495956927,0
3.447025781,-1.498916797,-0.425794922,5.653068078,11.51221959,-5.34804802,-1.633893031,-0.428882055,-0.589228047,12.99744347,3.971141296,2.4684495,1.288986654,2.424366184,4.326532376,3.203898962,1.389804805,3.5663831,1.683241819,3.114606781,11.825786,0.628345,1.7513,-4.9105,14.03725129,11.30613616,0.33312229,0.49447714,0.338304489,0.485234299,2.576539155,0.551036035,0.942145759,0.708488797,0.615643222,1.011887814,0.176280174,0.632011026,0.417767679,0.301309542,0.354141958,0.303540005,9.101875691,0.851589844,0.192559025,0.514116997,0.663793947,0.163421631,0.572231073,0.226827332,0.736364345,0.316335017,0.273136756,0.553652951,0.226608911,0.404759406,0.187153141,0.467715822,0.548848196,0.131371219,0
3.06323202,-1.598807813,-0.348826172,5.778717207,10.81386085,-5.998672348,-1.378012727,-0.479387484,-0.549699863,12.71589771,4.388589967,2.47829967,1.439785697,2.478377665,4.804646173,3.317373411,1.513504443,3.840732989,1.897421952,3.259660412,12.686481,0.628345,2.0174,-5.5215,14.4565411,11.55743441,0.726956942,0.63161382,0.272484706,0.546973839,2.444147094,0.358387867,1.09165617,0.445561166,0.226447243,1.345581806,0.444288334,0.791337188,0.156939399,0.139918448,0.604804448,0.047311058,9.846135506,0.697652344,0.317619671,0.651217013,0.486723339,0.231446686,0.778134174,0.133424353,0.689046321,0.419296545,0.470172517,0.485983711,0.098489421,0.553313535,0.331784767,0.340951109,0.783039891,0.192385875,0
3.511178871,-1.143658594,-0.556395313,5.960555891,11.12854876,-5.737405098,-1.593191582,0.252078371,-0.823456949,12.82450886,4.416034902,2.382904338,1.619541173,2.494031056,4.732170923,3.323744307,1.683860846,4.022947759,2.170180817,3.07787799,12.686481,1.350955,2.3035,-5.5215,14.19641551,11.92111178,0.395061281,0.891091836,0.590961696,0.494180034,2.335305982,0.603966332,1.496937063,0.104588127,0.396783059,1.042073496,0.442490542,0.765079056,0.2541866,0.424327777,0.521838964,0.169411449,10.5682435,1.112790625,0.121802507,0.702248869,0.508478031,0.234575405,1.03650474,0.450729169,1.043086423,0.814351847,0.048628777,0.430947084,0.172896006,0.434530122,0.358761444,0.414240391,0.604418588,0.199284081,0
3.821054664,-0.822858594,-0.605882031,5.679009004,11.77258903,-4.928464184,-1.737442223,0.560514074,-0.783997152,13.00986268,3.725360913,2.336321625,1.539304516,2.258245934,3.959779246,3.279009106,1.521154176,3.585803317,2.084802364,2.694111664,10.722675,1.350955,2.6654,-4.5897,12.76577627,11.35801801,0.426581732,0.775304771,0.680103385,0.484496561,2.173483597,0.561795131,1.294002548,0.355551252,0.543690292,0.674587709,0.116832321,0.69814572,0.212472719,0.445935042,0.364542004,0.165927238,9.459496581,1.211764063,0.340224537,0.731136429,0.375555058,0.092748355,1.115316811,0.381037986,1.310498378,0.335794321,0.290134685,0.323837299,0.145717784,0.322252485,0.301842936,0.237744304,0.140153323,0.081466312,0
4.105664437,-1.489111719,-0.411627344,6.113071184,12.22030473,-5.241057156,-1.526902125,-0.14544234,-0.557299391,13.58817746,4.068901482,2.710036512,1.348303114,2.755341845,4.450191712,3.47900192,1.33214236,3.740697523,1.840465725,3.235395907,13.561191,2.100724,2.6654,-4.351,16.18172099,12.22614237,1.02255511,0.916441545,0.449501636,0.666824261,2.823765259,0.85760304,1.00247931,0.407001262,0.555712084,0.942265769,0.418149912,0.443049008,0.410157055,0.601680537,0.505007064,0.196962441,9.338200323,0.823254688,0.186684386,0.478425984,0.295165739,0.496478521,0.640820558,0.560870942,0.918182819,0.421785889,0.302540576,0.669022619,0.298480637,0.031668059,0.449122092,0.246845405,0.337966795,0.201176653,0
4.050280434,-1.892490234,-0.459601953,6.524583746,11.99749432,-5.92235716,-1.398213812,-0.500691207,-0.808513359,13.65152874,4.627990372,2.79096072,1.219559741,2.884859169,5.069697941,3.415609908,1.261619357,4.124337126,1.69635218,3.573892657,13.561191,0.737579,2.4019,-4.351,16.5431979,13.04916749,0.489327976,0.990759659,0.865790191,1.501364444,2.834106165,0.568742185,1.071667366,0.184884192,0.683561409,0.955566538,0.103584106,0.563659893,0.22169755,0.576948706,0.618880777,0.20544775,9.380595591,0.919203906,0.115619453,0.427882277,0.648206397,0.252695797,0.431487619,0.186355306,0.76264498,0.624548442,0.274855936,0.344405173,0.112901381,0.449953563,0.124216924,0.392381133,0.391290506,0.227174346,0
3.255493723,-1.386308594,-0.40034375,5.73553818,10.92309632,-5.908740125,-1.313967836,-0.076182684,-0.740168781,12.78817298,4.373964152,2.442821859,1.215802185,2.522118604,4.799298746,3.404261402,1.285728309,3.833111659,1.682645371,3.257921763,11.858725,0.737579,1.7675,-3.5889,15.31278352,11.47107636,0.764099249,1.227049281,0.620437895,0.29755267,2.481390062,0.250660234,0.706332171,0.632580737,0.327510831,1.152696787,0.200378176,0.787071831,0.243072532,0.39968742,0.406358986,0.305906313,8.404766878,0.8006875,0.205249184,0.623190785,0.487025791,0.117444156,0.734220665,0.174958985,0.828637369,0.374553185,0.440185879,0.096650912,0.134155734,0.445328444,0.103510096,0.122581193,0.190082125,0.058612819,0
3.205067949,-1.33203125,-0.401264844,5.469447344,11.33504864,-5.080196727,-1.652896996,-0.353169715,-0.614229008,12.71097305,3.946419579,2.434838049,1.707128336,2.590342916,4.241375024,3.202719322,1.62706457,3.22845978,2.054721984,3.346958382,11.884159,1.299375,2.4069,-4.9944,14.11759921,10.93889469,0.198285012,0.227101102,0.811006133,0.170080057,2.783875718,0.325369949,1.439720919,0.932953124,0.610552024,0.649960378,0.195153667,0.386104157,0.270028533,0.261001223,0.214076972,0.318508974,10.54018687,0.802529688,0.17602998,0.465734562,0.646901661,0.491644594,1.071418081,0.160889925,1.211495681,0.532188335,0.657065292,0.979916456,0.086402378,0.180492736,0.334275257,0.133093918,0.212414282,0.076073339,0
2.422717559,-1.316414844,-0.346382031,5.251188051,10.37213061,-5.526865012,-1.650053895,-0.594851453,-0.64688043,12.04599934,4.242846692,2.300746928,1.83448098,2.609217623,4.499174821,2.982400207,1.762938334,3.121898624,2.20518407,3.550739973,11.884159,1.4367,2.8194,-5.5665,16.31762749,10.5023761,0.228405736,1.001801189,0.163550226,0.499067015,2.558543608,0.103989835,1.443880596,0.810313431,0.641302427,0.721350255,0.280760666,0.844858837,0.441452759,0.307206379,0.116833121,0.159990451,11.13765716,0.692764063,0.221308087,0.746872952,0.43374017,0.608205247,1.484657423,0.207657477,1.145078408,0.491142217,0.30966549,0.844270416,0.364085585,0.550016226,0.108717009,0.272440993,0.264438671,0.095212098,0
3.037026516,-1.115100781,-0.5125875,5.685557813,10.71285548,-5.732018129,-1.687313645,0.120862418,-0.916138816,12.4222398,4.593238176,2.302524983,1.829157757,2.85472129,4.793870897,3.141378307,1.771685684,3.602793714,2.315256682,3.598633464,13.517638,0.865277,2.8194,-5.7437,17.48910203,11.37111563,0.56264886,0.31653774,0.464842149,0.546017426,2.889215796,0.72224545,1.332805991,0.831945084,0.581284842,1.111677447,0.504200346,1.055430139,0.464120252,0.195344094,0.372054245,0.259452251,12.00260188,1.025175,0.232110347,0.418170681,0.463894647,0.583325496,1.418224778,0.824442934,0.529057033,0.969556255,0.281945825,0.607508324,0.400839201,0.731743411,0.317328722,0.306042019,0.375112561,0.124907324,0
3.669907383,-0.969013672,-0.486300391,5.791102777,11.48932502,-5.365854879,-1.588403191,0.578295477,-0.766575789,12.87100548,4.240297775,2.424078461,1.843079362,2.89137447,4.443487174,3.213227031,1.748943727,3.668588275,2.328273073,3.314209067,13.517638,0.865277,2.2785,-6.0258,16.47866806,11.58220555,0.422141106,0.154311878,0.612285815,0.764317165,2.933623391,0.494849998,1.796937466,0.181332526,0.865749644,0.889948058,0.221319695,0.770956629,0.328589372,0.373058945,0.664516344,0.337575885,11.15801546,0.972600781,0.099356194,0.455160961,0.377774958,0.231665635,1.104373262,0.162775912,1.562616136,0.371260956,0.490378191,0.767450436,0.349896293,0.830884511,0.23279761,0.50182223,0.412697104,0.223792255,0
3.479502711,-1.168252734,-0.285765625,5.627087766,11.59362242,-5.086631133,-1.347486664,-0.06421623,-0.417569383,12.86650015,3.951289663,2.465836131,1.890514514,2.675141184,4.311308042,3.064837418,1.752626115,3.482292988,2.295544045,3.167446842,11.178561,1.241974,2.9133,-6.0258,14.37485721,11.25417553,0.081410542,0.327782338,0.550107446,0.719351811,2.595726042,0.431619534,1.718548532,0.71901641,0.56767897,0.931407156,0.391475223,0.534309496,0.316186061,0.894812619,0.393617005,0.255730999,12.54908273,0.57153125,0.1478295,0.44020417,0.362689228,0.291131423,0.856964164,0.356636336,1.802671029,0.732471597,0.142866579,0.513104919,0.820904024,0.425975157,0.255245726,0.609576536,0.357309387,0.128620088,0
3.699605809,-1.070001172,-0.619054297,5.862138512,11.41405729,-5.5894135,-1.75973825,0.613642914,-0.980192023,12.91286874,4.417598211,2.269285564,1.978896691,3.071059673,4.529186456,3.247477539,1.866877111,3.785251437,2.596329569,3.160647409,13.868983,1.292573,2.9039,-6.8101,16.28912767,11.72427702,0.289688962,0.273506358,0.761350748,0.940095461,2.88579864,0.735994567,2.088246071,0.294254787,0.109079418,1.084829469,0.179111663,0.970029265,0.290405075,0.33919899,0.971501758,0.250593127,11.42971152,1.238108594,0.265183943,0.752518274,0.286813473,0.116154148,1.312890068,0.338663252,1.479701452,1.207898448,0.286551064,0.316906063,0.156658476,0.816229299,0.099221433,0.339457709,0.531052954,0.210525079,0
3.132617141,-1.349623047,-0.473083203,5.88308884,10.73260763,-6.054487137,-1.573738664,-0.00224823,-0.846036129,12.57215266,4.735203047,2.204791518,1.773238577,2.770464395,4.958801741,3.031615604,1.735406953,3.923109919,2.162303908,3.499670118,13.868983,0.532899,2.6704,-4.8249,18.0388668,11.76617768,0.723318794,0.748486734,0.109880189,0.365164408,2.496918132,0.565207376,1.425756795,0.875935077,0.186318881,1.273330284,0.597199021,1.105812473,0.610136876,0.359727346,0.530124,0.27371656,11.84783507,0.946166406,0.146063521,0.556111573,0.659988084,0.612017239,0.9409059,0.526377834,1.423217827,0.552344159,0.372949723,0.707747405,0.348405412,0.407746837,0.160003546,0.259198184,0.46506016,0.192951027,0
3.458986688,-0.941785938,-0.528628125,5.560962914,11.16595815,-5.496488523,-1.62760823,0.563649531,-0.853608887,12.66011626,4.110001513,2.242803968,1.664973905,2.626995933,4.342003408,3.051909394,1.631138483,3.676891388,1.980413035,3.098454029,12.525417,0.532899,2.6704,-4.8187,15.53000471,11.12192583,0.244396573,0.293504913,0.315400682,0.423532982,2.636053111,0.807039768,1.770365724,0.53797945,0.275968158,0.814506313,0.260311863,0.717307619,0.116339775,0.413709709,0.536942343,0.178910686,10.8519328,1.05725625,0.229600241,0.57589831,0.335213167,0.103630124,0.745299772,0.345196344,1.327796811,0.807760108,0.478276479,0.706454365,0.202928376,0.469157559,0.074862928,0.353531606,0.379273005,0.195414579,0
3.522976133,-0.933969922,-0.498007812,5.808220395,11.530625,-4.964526852,-1.624316223,0.293002879,-0.695646625,12.81790805,4.486659642,2.491943763,1.682675396,2.994585444,4.756315913,3.219482522,1.663054548,3.661876273,2.001727089,3.702541329,13.446849,0.507383,2.9664,-4.8187,16.97807296,11.61644079,0.515270361,0.292163102,0.438877478,0.645056919,3.06058094,0.56793431,1.851628769,0.888649468,0.785560527,0.783580656,0.244645134,0.880538608,0.150901087,0.477982686,0.158493963,0.1521901,12.03214321,0.996015625,0.199989481,0.545452521,0.48244596,0.092821833,0.823374851,0.108362557,1.279286935,0.419773537,0.998534985,0.366206451,0.170186629,0.603684318,0.334974625,0.344343911,0.487219094,0.209166228,0
3.718283914,-1.555665234,-0.374499609,6.560228164,11.73263579,-5.442020473,-1.441159793,-0.312751848,-0.74832384,13.1609741,5.053242616,2.887709913,1.835384738,3.254558508,5.357031125,3.469109037,1.752359753,3.950131699,2.201907229,4.339303876,15.03151,0.507383,2.9664,-5.1391,18.76094555,13.12045633,0.654799595,0.171342118,0.431201521,0.982179026,3.225674799,0.771821316,1.771372722,0.972940806,1.036207783,0.808682619,0.174946161,1.232383004,0.201516734,0.267975838,0.133483244,0.164031232,11.75634293,0.748999219,0.149227069,0.302698341,0.440432771,0.597810064,0.876033674,0.080514602,1.159286796,0.554784706,0.225236451,1.160578883,0.348561332,0.965172767,0.233489496,0.775933418,0.047022202,0.319047172,0
3.08840073,-1.679355469,-0.316909375,6.849621211,10.76702434,-6.111798359,-1.336114172,-0.604677496,-0.878627988,12.63088298,5.760909648,3.031846612,1.854928715,3.370831808,6.178346251,3.411779801,1.68071462,4.234744738,2.268135061,4.893952793,15.447172,0.72668,2.9219,-5.1391,18.52128746,13.69924242,0.33480662,0.37997199,0.696949366,0.743254607,3.509457647,0.202267296,1.795075463,1.118049271,0.267937481,1.441321028,0.456270826,0.951805751,0.368488513,0.431367081,0.318432667,0.139980603,11.94768529,0.63381875,0.17461524,0.382253853,0.371044269,0.221329548,1.186188655,0.56721205,1.022093986,1.139865014,0.698478213,0.852854883,0.218795083,0.508623474,0.346185798,0.248252927,0.529152496,0.138597329,0
3.619411266,-1.41775625,-0.420216406,7.269170098,11.00315247,-6.28193632,-1.381753645,0.277876293,-1.004652832,12.84524145,6.208119303,2.954570102,2.05504579,3.733545234,6.453373352,3.574793269,1.826527555,4.609756059,2.569882889,5.124625942,16.197033,0.72668,3.3892,-5.7825,21.0559503,14.5383402,0.157017591,0.404254185,0.759803282,0.592348396,3.849548577,0.758713857,2.193317349,0.377861771,0.788303728,1.39839179,0.846583304,1.195561263,0.592079884,0.144834431,0.598679731,0.139598459,11.79265879,0.840432813,0.087532496,0.278839652,0.192736107,0.148961646,1.115325072,0.271456878,1.821878994,0.897023582,0.884219662,0.995361061,0.250374342,0.23255189,0.176055946,0.331723626,0.417310857,0.031356386,0
4.148091719,-1.282003516,-0.456616406,7.170788906,11.75343541,-5.86190357,-1.427093863,0.729128977,-0.991119535,13.2058761,5.780631997,2.975163592,2.313479833,3.90614585,5.855997015,3.70158132,2.100494851,4.511834127,2.827932876,4.762906363,16.197033,0.720668,3.8954,-6.0681,19.85931489,14.34157781,0.050650165,0.296678137,0.574726603,0.814533479,3.919541494,1.172873786,2.580826324,0.503213669,1.121278348,1.565576995,0.378141092,0.832177944,0.15159778,0.31475875,0.53184646,0.28112872,14.62261589,0.913232813,0.124910377,0.406971045,0.128634374,0.181524038,1.168829209,0.562207063,1.896719689,0.887268918,1.14042423,1.144438365,0.326654013,0.515827866,0.263981908,0.300172484,0.591088892,0.19588643,0
3.85488002,-1.307465234,-0.475822266,6.950955344,11.76181512,-5.387552352,-1.55638075,0.156453914,-0.758562219,13.13805775,5.526919749,3.038391885,2.446187583,3.773949038,5.746136778,3.694340061,2.231727022,4.233877902,2.930425063,4.659786218,18.025583,0.720668,3.8954,-6.0681,21.05142332,13.90191069,0.18218569,0.429375171,0.887346377,1.142798869,3.577187826,0.681193438,2.221493053,0.723301025,1.091985706,1.849070316,0.456326616,0.852403045,0.401330286,0.600693961,0.308857805,0.328756966,14.92589722,0.951644531,0.191579559,0.33083988,0.141823238,0.15157961,1.292777504,0.52801615,2.222908952,0.206556781,0.459777258,1.174392449,0.811997292,0.807159593,0.309535826,0.932974083,0.318037547,0.154555983,0
3.929159316,-1.747506641,-0.456403516,7.132991906,11.81673214,-5.850381516,-1.528398496,-0.228048367,-0.740384063,13.34708545,5.637757795,3.055334442,2.440843884,3.859779994,5.832174998,3.681352198,2.205262963,4.282842766,3.105382004,4.679414896,19.763164,0.770065,4.1628,-6.0567,22.0952715,14.26598381,0.023096137,0.496663192,1.124581469,1.368609892,3.468489932,0.36719594,1.965412684,0.915054799,1.300203695,1.916318621,0.701798628,1.192835287,0.343980309,0.649399112,0.533249827,0.661046147,17.00044391,0.912807031,0.187296382,0.139107259,0.486065049,0.72893239,0.945993868,0.198119354,2.106748659,0.806646834,0.584015112,1.123958583,0.642195102,0.87051123,0.345487366,0.566096881,0.760025983,0.467560358,0
2.830144887,-1.515223828,-0.303189062,6.622618992,10.49288819,-6.09728357,-1.417666648,-0.439963574,-0.538312633,12.33884847,5.86974297,2.855504007,2.206011709,3.743358907,6.151785646,3.2873878,1.958117359,4.292678166,2.892307095,4.716980395,19.763164,0.521081,4.1628,-5.7887,24.63327086,13.24523798,0.372383719,0.971791343,0.913041398,0.751530338,3.257880862,0.395708585,1.602797236,1.111893632,1.616071319,1.723599834,0.579670985,1.273020568,0.047587234,0.793087022,0.805375228,0.353639483,13.31511835,0.606378125,0.151869135,0.278099275,0.420286869,0.197510751,1.192285347,0.599910327,1.959707716,0.737362271,0.664355824,1.104060726,0.083325248,0.467121296,0.38049298,0.566383205,0.422895702,0.281293644,0
3.365778863,-1.199733594,-0.516773828,6.839650621,10.77360832,-6.080823438,-1.685667613,0.42907873,-0.88840909,12.52658904,6.089363605,2.665635119,2.122438582,3.865846059,6.196777256,3.348601944,1.899911759,4.546033896,2.856250712,4.732649705,16.38005,0.521081,2.9282,-5.854,23.28039556,13.67930124,0.27034429,1.007465176,0.341175777,0.987020232,3.5022166,0.397315205,2.07826895,0.252432622,0.689834539,2.031723771,0.818393945,1.67682572,0.496384042,1.009331115,0.431378494,0.211042611,12.65030226,1.033547656,0.112577283,0.353713578,0.167002717,0.071271554,1.367185434,0.713404343,1.821054785,0.590080141,0.680058535,0.802065289,0.517220356,0.521335351,0.159796876,0.605549418,0.134224713,0.1304429,0
3.819333941,-1.097324609,-0.462057422,6.618522918,11.45460913,-5.636100461,-1.641374902,0.821419824,-0.941567094,12.82008015,5.670820123,2.695569236,2.077132586,3.992349745,5.568148829,3.555980985,1.857223257,4.273137895,2.95451405,4.456655518,16.386571,0.397174,3.2276,-5.854,20.9470143,13.23704584,0.329331257,0.937405183,0.179446461,0.379479505,4.002602156,1.257630419,2.481775274,0.106523885,0.869755908,1.766530289,0.324147374,1.170418554,0.036273113,0.508070228,0.471160552,0.326828081,13.03667704,0.924114844,0.082675733,0.267717501,0.348880409,0.220131613,1.492151655,0.470594983,1.779866131,0.543727172,0.540879386,0.765010768,0.273620041,0.484211639,0.214135415,0.288380915,0.59958929,0.345002315,0
3.414931621,-1.045742969,-0.210307422,6.090299465,11.5367602,-4.894346824,-1.244984875,0.101285996,-0.383942406,12.70730702,4.914977409,2.707978955,1.876436958,3.273986029,5.109092445,3.350885161,1.690157172,3.679445506,2.575074429,4.121491387,16.386571,0.397174,3.345,-5.1097,19.12627601,12.18059893,0.447004053,0.557009083,0.834765898,0.943271147,2.973112289,0.425114915,1.964208331,0.459307285,0.819940093,1.756496804,0.422216524,0.864777257,0.350237233,0.50379277,0.530909684,0.331673597,13.91047491,0.420614844,0.104614959,0.323746947,0.125392098,0.63223588,0.70490465,0.140286711,1.459485862,0.552564224,0.69993829,0.96959975,0.609416661,0.458485376,0.267111776,0.688020605,0.394030857,0.520590631,0
3.44036482,-1.444463672,-0.286862891,6.401311465,11.51745693,-5.38485891,-1.155501563,-0.340269508,-0.30633152,12.87676562,4.808935364,2.849650529,2.082593668,2.9345611,5.11823623,3.312567127,1.888409188,3.711456318,2.550348913,4.173647272,13.897206,0.992147,3.4625,-6.0277,16.76856801,12.80262293,0.573801814,0.271971676,0.608282432,0.751118529,2.982133336,0.89719411,1.239938347,0.955621247,0.405159426,1.262258209,0.694961318,0.697116579,0.219346815,0.496789857,0.236595321,0.455513815,14.26182186,0.573725781,0.062722035,0.198693497,0.410146146,0.323052741,0.618807566,0.747532743,1.545971397,0.363669747,1.189992846,1.112277437,0.74950542,0.513980433,0.147440679,0.475850269,0.512702507,0.569888072,0
2.454536309,-1.29915625,-0.320199609,6.266194594,10.12253516,-5.95348182,-1.278653313,-0.525326395,-0.360572969,11.96223916,5.333433425,2.862481635,2.074412013,3.080971407,5.728067093,3.102360846,1.865764113,3.545794194,2.660636498,4.723166298,14.926824,0.839083,3.4625,-6.0277,18.21910201,12.53238919,0.362065722,0.301759469,0.354020016,1.435742309,2.830473773,0.621171222,1.722723493,0.14151234,1.158488769,1.109204178,0.291087328,0.952467778,0.686492401,0.320914511,0.434055875,0.140624575,12.86301598,0.640399219,0.042601593,0.42007302,0.398368005,0.150400562,1.060010007,0.620439209,1.746927993,0.576745893,0.928807758,1.037489025,0.422506229,0.271288713,0.130578737,0.308394617,0.609324386,0.212398682,0
3.005555035,-1.332471484,-0.192266016,6.972730133,10.36719262,-6.230012129,-0.98476509,0.24287927,-0.366827762,12.23179047,6.336012838,2.858625642,1.728720574,3.678602196,6.442733839,3.549107823,1.62754837,4.527252915,2.658528419,5.161526086,17.01196,1.042709,3.6987,-4.5669,23.64933036,13.94546027,0.77266599,0.842438243,0.804760107,0.540650001,3.334012916,0.344808671,1.744136232,0.754599306,0.494387033,2.080912278,0.634854373,1.726011589,0.100341997,0.671605806,0.21170032,0.187809571,11.89510889,0.384532031,0.167066027,0.109255626,0.521686741,0.405430161,0.83460215,0.736129139,0.632249524,0.914498287,0.90285086,0.843483153,0.566639962,0.537415371,0.124721676,0.019991954,0.436463178,0.190230727,0
3.672542133,-1.03910625,-0.393685547,6.80177391,11.06884333,-5.828534422,-1.249922902,0.786085164,-0.806668172,12.60778597,5.961963718,2.854497247,1.809236938,3.927425321,6.014473105,3.669536501,1.796378585,4.469987808,2.881772399,4.733863412,17.01196,0.753381,3.0344,-5.85,22.71873638,13.60354782,0.838340859,0.92107895,0.505150446,0.485295343,3.774119504,1.156778154,2.45487035,0.359091037,0.728562492,1.744406866,0.529983266,1.264543585,0.223524663,0.258639136,0.506368521,0.174765648,11.74287217,0.787371094,0.234693568,0.715681763,0.116116222,0.390038422,0.812430777,0.421709135,1.528154486,0.639770111,0.416312192,0.640543291,0.172789555,0.646006111,0.049012688,0.435724825,0.503554438,0.326596422,0
3.549791367,-0.959419922,-0.344345312,6.83739052,11.35749428,-5.292083574,-1.250222187,0.459174453,-0.673115477,12.67330308,5.717356231,3.006609938,2.312630223,3.737150263,5.823524373,3.722867637,2.136847784,3.947768778,3.193318839,4.882876185,17.623517,0.753381,4.655,-5.932,21.43063383,13.67478104,0.285152865,1.267249604,0.488442355,0.879672847,3.484258732,0.911945661,2.220100905,0.110306491,1.521791426,1.557582367,0.783900722,0.926755976,0.198654479,0.38604306,0.316292534,0.461794008,15.1263898,0.688690625,0.132066405,0.451936487,0.53346648,0.146411353,1.259701514,0.387581035,2.201164056,0.526716323,0.917190477,0.853012488,0.28692959,0.558318523,0.147307713,0.575376366,0.512402615,0.187855753,0
3.504371848,-1.460932422,-0.092935156,6.949289328,11.47077,-5.56711748,-0.881515121,-0.123861996,-0.272314207,12.84777066,5.503125492,3.099561438,2.427922821,3.452164355,5.711612503,3.567584184,2.18263622,3.728570825,3.119630479,4.96723886,17.623517,1.168808,4.655,-5.932,19.59476175,13.89857866,0.285586924,0.631995262,0.915765824,1.081305101,3.099251671,0.446979756,1.860526922,1.008131439,1.324779155,1.689738361,0.47084181,1.01156195,0.30515065,0.441850446,0.214030913,0.42908923,14.58671274,0.185870313,0.330693468,0.614985404,0.318123522,0.477581626,0.867667273,0.461745804,2.28492359,0.419966343,0.911932044,1.258822607,0.212555966,0.801938627,0.439644625,0.76647227,0.230856182,0.261632179,0
2.907092535,-1.513408594,-0.220880469,6.743419992,10.77390771,-5.856516625,-0.96157123,-0.437344355,-0.26557198,12.35488381,5.621387526,3.120081804,2.072915653,3.308859758,5.873237882,3.340175204,1.867061931,3.944149435,2.632017432,5.004929916,16.615553,1.168808,3.8623,-5.4281,18.52725323,13.48683998,0.170385131,0.327067705,0.966831048,0.803807174,3.224636466,0.61930069,1.585475031,1.18921122,1.341312179,1.407524367,0.323749311,0.913800993,0.165452633,0.187048861,0.175379267,0.082105577,15.35764414,0.441760938,0.175230329,0.151984077,0.365838734,0.504577455,0.440647992,0.544793102,1.982012091,0.488100412,0.687168797,1.137448936,0.430988773,0.426815165,0.31880601,0.362559533,0.371851104,0.414943758,0
2.724503078,-1.053837891,-0.169841797,6.355012883,10.32664088,-5.778256152,-0.939724141,0.168523,-0.289319742,11.99956552,5.701004914,2.804728829,1.679914037,3.371382373,5.887596857,3.359516673,1.506768651,4.023987142,2.151702271,4.920097981,15.014527,0.810418,2.8776,-5.2358,21.84175026,12.71002577,0.568067149,0.708265425,0.492446027,1.048061171,3.205642244,0.22101536,1.747445652,0.430656177,0.877685541,1.558283443,0.620431773,1.370699549,0.370028818,0.379421208,0.467127149,0.314472058,11.17809659,0.339683594,0.093653216,0.16254042,0.306822207,0.259297496,0.526907981,0.313972152,1.477039025,0.658673088,0.513247787,0.597986533,0.755554322,0.37292845,0.093756514,0.591241551,0.340192224,0.176883008,0
3.447031609,-0.922439063,-0.213186719,6.224347793,11.13917303,-5.526565707,-0.882113668,0.64564282,-0.621105527,12.53985189,5.267917146,2.602778334,1.763449829,3.416287971,5.396938032,3.321099002,1.637148759,3.798607004,2.496962207,4.418639766,14.593567,0.779282,2.8776,-4.8686,18.60949027,12.44869559,0.413156574,0.311119308,0.352285967,0.677770523,3.304078292,1.054610654,2.318294072,0.281817436,0.839205263,1.500436394,0.262001407,0.976180367,0.125684852,0.125940649,0.45899775,0.067708298,10.81990384,0.426373438,0.191487962,0.276566239,0.065729044,0.214722969,0.493735145,0.565412629,1.729918797,0.428851185,0.468083899,0.453916831,0.045633552,0.724078959,0.324774781,0.658642544,0.385315265,0.102736615,0
3.22155193,-0.730773047,-0.238255078,5.847987137,11.29240191,-4.804564293,-0.903511867,0.421505754,-0.543379707,12.40376805,4.772466846,2.658876185,1.789818397,3.133647827,4.943003902,3.276293772,1.64366803,3.454911287,2.407360888,4.150826009,13.460534,0.779282,2.8663,-4.5414,18.51216056,11.69597427,0.415766779,0.50193187,0.116506423,0.747941848,3.120246379,0.767063571,2.04646775,0.102062872,0.774728437,1.375040519,0.625652806,0.485742913,0.416221232,0.263660914,0.075070886,0.370670171,10.63871267,0.476510156,0.076507677,0.366709696,0.196099762,0.095029558,0.524579573,0.286343176,1.876574522,0.472931009,0.449685226,0.752208131,0.26567416,0.429210756,0.071371474,0.674752788,0.273903919,0.281721195,0
3.079060117,-1.158171875,-0.135108203,5.876411707,11.249007,-5.048174293,-0.906354973,-0.210380602,-0.275054527,12.47721033,4.591467254,2.791836934,1.745241448,2.86876352,4.87235873,3.172130011,1.600246569,3.205747018,2.235611169,4.258322786,13.278957,0.953305,3.1741,-3.9138,17.61394275,11.75282341,0.267270104,0.457025211,0.503036143,0.697218075,2.919638167,0.566537583,1.504796274,0.903078325,0.960224243,0.980048486,0.212634967,0.755702098,0.306602624,0.293043484,0.427252086,0.239909803,10.44191642,0.270216406,0.172392477,0.398293427,0.269539821,0.236008296,0.529679529,0.310523262,1.626595969,0.084751982,0.446774988,1.156180052,0.483361467,0.383144585,0.187573189,0.414005913,0.114930118,0.165927699,0
2.527012844,-1.367220313,-0.267899609,6.161961797,10.51862588,-5.623680504,-1.066317602,-0.536983703,-0.274275543,12.07221808,5.334346693,2.654818148,1.622400036,2.914202622,5.555136193,2.928158806,1.527255071,3.424768635,2.248061606,4.720764443,14.550109,0.684748,3.1741,-4.8049,17.09104674,12.32392359,0.164281664,0.418541689,0.861155733,0.693305238,2.718087273,0.461219039,1.526412975,0.968722504,0.814050467,0.983674388,0.351523919,1.284763351,0.49714757,0.203746208,0.492130598,0.194150882,11.79135991,0.535799219,0.034110218,0.181865199,0.445425898,0.104002811,0.543285792,0.459785965,1.221673232,0.515761281,0.400111482,0.954257216,0.467609177,0.539756154,0.496063704,0.301910255,0.414566139,0.077622722,0
2.54950425,-1.126287109,-0.290373828,6.151540914,10.15126559,-5.893327457,-1.172709945,0.108977305,-0.395035465,11.88623038,5.689515291,2.424710755,1.331395609,3.167613583,5.748042502,3.068277368,1.273217255,3.706535538,2.298802616,4.770414013,14.550109,0.684748,2.1879,-4.8049,19.28510506,12.30308183,0.453031166,0.631283721,0.774297958,0.693766739,2.823172742,0.569440552,1.451538799,0.558888959,0.289935705,1.582874433,0.662222413,1.798144908,0.064669255,0.524642861,0.358914374,0.195703097,10.419264,0.580747656,0.126942543,0.131398905,0.105754386,0.147503742,0.54668988,0.298398028,0.819218355,0.672704347,0.330549443,0.271423601,0.065153857,0.748766253,0.482842355,0.241678597,0.460401932,0.239234362,0
3.221976895,-0.882141406,-0.258351562,6.052418137,10.87536195,-5.547514926,-1.27177002,0.698767309,-0.557567449,12.31250803,5.319495316,2.478492294,1.359195582,3.298735361,5.352507291,3.170548971,1.284811762,3.535168407,2.417174817,4.503455652,14.584096,0.874321,2.4082,-4.107,18.09027174,12.10483627,0.246626293,1.013912066,0.273148189,0.322345124,3.253199831,0.736534406,2.021689639,0.30154796,1.361987401,0.634555319,0.493934014,1.213663573,0.505259642,0.227863612,0.248847344,0.05959073,8.882203749,0.516703125,0.107128158,0.18377087,0.277794849,0.199574805,0.506096828,0.211006844,1.27706672,0.357543524,0.412891911,0.161885943,0.389169634,0.618944885,0.396388317,0.224142174,0.24628736,0.117448251,0
2.992165578,-0.709094922,-0.284297656,5.858684078,11.07842016,-4.77792875,-1.266083742,0.448149039,-0.430795223,12.21985603,5.077873197,2.559404063,1.646251439,3.202811956,5.147627651,3.193603752,1.521989984,3.169132413,2.454152318,4.516528048,14.747779,1.016495,2.4082,-4.7276,17.92134588,11.71736816,0.439924079,0.912747949,0.627309985,0.786378028,3.052240467,0.619424235,1.95966315,0.434685906,0.600006409,1.467652105,0.269444077,1.101363676,0.223775663,0.201925311,0.393118494,0.131992089,9.625944126,0.568595313,0.177497768,0.18634478,0.141322432,0.142550851,0.653884081,0.447496055,1.643905308,0.316222735,0.365094204,0.758257537,0.353875273,0.460403603,0.280345229,0.553896686,0.243690266,0.073220854,0
3.166680434,-1.259053125,-0.256265234,6.257487516,11.32607039,-5.14798257,-1.174056609,-0.018977504,-0.060487785,12.57584798,5.079714945,2.812118966,1.776824403,3.064510078,5.253909178,3.211136558,1.628438025,3.216291618,2.537502494,4.667692215,14.747779,1.10134,2.8471,-5.8053,17.82316116,12.51497503,0.14993577,0.309749156,0.70522032,0.935505589,2.939515453,0.55925075,1.494726624,0.67890199,1.328370004,0.761372065,0.39876435,1.43138036,0.196896014,0.241417126,0.362890012,0.324411315,10.4912617,0.512530469,0.074891034,0.155049574,0.088280232,0.238826716,0.565620448,0.045925951,1.772828546,0.271420529,0.606644122,0.590974539,0.683679238,0.573866951,0.469620323,0.647725341,0.256693347,0.224600058,0
2.596764422,-1.261087109,-0.237705469,6.24296432,10.64731421,-5.431695473,-1.206976941,-0.217241836,0.253018379,12.09692575,5.285265754,2.966719513,1.594688858,2.948544705,5.571715908,3.030136323,1.469645934,3.19042229,2.439626402,4.912597477,14.137504,1.10134,2.8471,-5.8053,16.59082469,12.48592864,0.275726452,0.124336208,0.603126452,1.050406428,2.795717957,0.629446619,1.456517054,0.873449893,1.243007024,1.046849403,0.527770115,1.093243755,0.131546368,0.273265503,0.170606948,0.286818608,11.37803952,0.475410938,0.023767224,0.294866984,0.21662859,0.235774748,0.28275523,0.536176752,1.269186978,0.355370494,0.644254667,1.092602796,0.225940404,0.494203223,0.265912646,0.460544228,0.395552476,0.204072708,0
2.483921457,-0.883288672,-0.151076562,5.894090883,10.23745679,-5.472097633,-1.098190395,0.267576406,-0.028348586,11.78829684,5.223168292,2.688326076,1.469423062,2.983348411,5.438751248,3.116534335,1.332989457,2.950794831,2.68539315,4.697891887,14.137504,1.190044,3.1566,-4.9247,17.48111137,11.78818177,0.225160174,0.286842579,0.688791841,1.071205415,2.843475576,0.195636381,1.529264359,0.484625042,0.525767227,1.674765229,0.536445807,1.096537177,0.078510979,0.190575757,0.138315824,0.253214984,9.171708413,0.302153125,0.151456052,0.183572749,0.201328163,0.149598391,0.146716862,0.056402019,1.205830325,0.821275514,0.762788042,0.636576499,0.556902543,0.404706631,0.09600091,0.414217424,0.233024734,0.175503521,0
2.946951938,-0.728382031,-0.31529375,5.627686121,10.71225691,-5.295974168,-1.291522176,0.401989262,-0.567960465,12.095247,4.714558821,2.483839252,1.745948148,3.014710748,4.856669248,3.067845988,1.637970276,2.46034516,3.14713501,4.174382601,13.141591,1.011676,3.1566,-5.3524,15.67910367,11.25537224,0.321374318,0.420568406,0.345955839,0.140016453,3.24606452,0.764390973,1.874388854,0.241954196,0.712711351,0.973841016,0.595243538,0.66357526,0.182308211,0.428445148,0.16370867,0.071020727,10.37251703,0.6305875,0.067789021,0.275611632,0.434168684,0.190554432,0.543298669,0.346336981,1.69011215,0.511997775,0.22511097,0.90505793,0.120128252,0.71808923,0.2938463,0.431047472,0.377122756,0.179045942,0
2.690308574,-1.142462891,-0.236221875,5.41590257,10.84992355,-5.121347074,-1.323843898,0.018811895,0.086102547,12.16819002,4.327007502,2.486159519,1.933386412,2.812249391,4.536512531,2.890033111,1.805652134,2.116773304,3.023419253,4.026478321,14.270069,0.975792,3.2707,-5.3524,15.47534169,10.83180514,0.018827756,0.372902245,0.473243869,0.480766248,2.818271772,0.449373752,1.311624376,1.130561178,0.808977598,1.083792337,0.339713487,1.083926695,0.208799956,0.095739032,0.125398294,0.156686537,12.66530577,0.47244375,0.142956534,0.249021648,0.404660235,0.274593944,0.547861108,0.661971611,1.58242055,0.546655581,0.268830591,1.340114725,0.530075261,0.630057749,0.543588623,0.270938522,0.459369443,0.151369416,0
2.61441209,-0.535528906,-0.293955078,5.502412328,10.75520296,-4.497507922,-1.45522573,0.40956816,-0.282599945,11.85788916,4.69005331,2.728534628,1.571536949,2.973724664,4.889461929,3.095134976,1.520076662,2.174380464,2.899486892,4.452514292,15.994736,0.939399,2.7301,-3.9688,17.39693304,11.00482466,0.924478004,1.294606508,0.711775818,1.406369318,2.283259361,0.6851771,1.741330876,0.352518564,1.102425226,0.938321644,0.875850654,0.509165325,0.308366976,0.280666535,0.06247938,0.360543712,9.475022087,0.587910156,0.147066783,0.36513042,0.181261257,0.050303721,0.222461099,0.262716398,1.420928551,0.520244265,1.098264888,0.342852351,0.219412566,0.286691807,0.367335977,0.598676562,0.259234038,0.265599037,0
3.201934734,-1.215594141,-0.288885156,6.141367695,11.33115807,-5.059995664,-1.431882266,0.156130059,0.130707941,12.60724826,5.058602034,3.081334174,1.322703864,3.30616568,5.290162658,3.404843484,1.312438028,2.375409983,2.963058727,4.893240564,15.994736,0.848964,2.7301,-3.6362,19.55975836,12.28273539,0.626976756,0.531379913,0.63805061,1.408520224,3.233181076,0.545132672,1.279625795,0.90197698,1.253498515,1.229203734,0.292724728,1.130985187,0.467221307,0.539635043,0.143806069,0.345265878,8.557626592,0.577770313,0.078494118,0.219273982,0.153625658,0.270258464,0.15455026,0.338598711,1.004186715,0.12609724,0.892820626,0.627861749,0.258639047,0.227244933,0.635987781,0.28431441,0.378023626,0.168349348,0
3.294539813,-0.89536875,-0.470253906,5.977268906,11.02619662,-5.535244668,-1.620724887,0.360781035,-0.643283008,12.53558407,5.059508659,2.803868943,1.384601546,3.395070226,5.280100722,3.190999331,1.318208883,2.111802315,3.086496613,4.792837959,15.845237,0.458331,2.6625,-4.9795,18.94260074,11.95453781,0.270483956,0.860800167,0.68046981,1.003798271,3.121376901,0.62558964,2.059117861,0.294425477,1.54648006,0.863169665,0.131760763,1.388350593,0.376561787,0.621923306,0.255482965,0.165959597,8.663330566,0.940507813,0.110297313,0.305370477,0.214727612,0.447308898,0.719905932,0.255646818,1.003887731,0.618995477,0.359827672,0.785462928,0.331578783,0.361288854,0.057484547,0.522304262,0.140370831,0.126277304,0
2.973967953,-0.722507813,-0.42551875,5.316056113,11.0761756,-4.959738398,-1.571194859,0.201301461,-0.583250988,12.3042733,4.219823117,2.502294248,1.916922573,3.005011018,4.382420546,2.887144962,1.797332719,1.794966343,3.126359256,3.968510106,15.845237,0.458331,3.2341,-4.9795,20.95810312,10.63211223,0.440379825,0.394071679,0.442372841,0.681791322,2.666011667,0.634030181,2.166396379,0.433221722,1.111639343,0.953553483,0.429605022,0.872462204,0.319311844,0.315348828,0.368943898,0.229960813,10.92622006,0.8510375,0.240623194,0.425437103,0.170173912,0.367850267,0.708363183,0.606173553,1.81374518,0.23113948,0.801754426,0.908682658,0.745428596,0.249024027,0.057049654,0.572111644,0.079225691,0.084406349,0
2.122874586,-0.863706641,-0.289471094,5.165974066,9.961225797,-5.536441801,-1.139340762,-0.293993512,-0.3548425,11.58558286,4.668961638,2.298082448,1.594344209,2.876005746,4.795548798,2.787911733,1.631164891,1.941781052,2.953308105,4.204298469,12.86438,0.417083,3.2384,-5.4145,18.40580651,10.33194813,0.399543534,0.950934597,0.709408775,0.963438812,2.509463631,0.083147387,1.629736208,0.38481012,0.489425737,1.342752252,0.366862177,1.237853027,0.326096325,0.523828433,0.181861678,0.212343313,10.64166618,0.578942187,0.156638857,0.595751004,0.721594609,0.310403794,0.807503843,0.296236579,0.93790872,0.381444118,0.589698042,0.425007479,0.455268193,0.850347329,0.206780936,0.54155491,0.3264541,0.056712768,0
2.962491758,-0.838999609,-0.495462891,5.9176735,10.61289755,-5.628019992,-1.57269127,0.413602316,-0.485797699,12.20266866,5.074335636,2.71982246,1.813204292,3.337802604,5.225864683,3.135716289,1.877416364,3.138405103,2.671311739,4.599016114,16.659067,0.417083,3.2384,-5.4145,20.46697808,11.835347,1.258631747,0.357406527,0.528108791,0.762827966,2.970763504,1.069609594,2.116662638,0.610132861,0.917304659,1.083813503,0.579651892,1.070694378,0.206288526,0.394999505,0.119142341,0.043215148,11.86043966,0.990925781,0.430979382,0.837107145,0.195717867,0.277541847,0.929172465,0.396882286,1.234476182,0.657882306,0.405620001,0.777631283,0.413917435,0.735468753,0.205361784,0.669750014,0.226710285,0.316445548,0
3.32102768,-1.509751953,-0.220963281,6.567266207,11.22820739,-5.733514516,-1.331625078,-0.054858934,0.192605109,12.77644575,5.096032106,3.117729558,2.146531815,3.244347869,5.393007681,3.425047964,2.024510193,3.857537683,2.19049083,4.762001997,16.659067,1.270897,4.0192,-4.8853,18.29245998,13.13453241,0.500988364,0.557080066,0.200686806,0.398520581,3.254687185,0.243996058,1.534102563,1.443903778,1.029538989,1.484724991,0.192120218,0.846046505,0.16107666,0.253400841,0.06254882,0.248712362,13.07823743,0.441926563,0.215229198,0.59418217,0.300323249,0.347095008,0.882686878,0.656579069,1.711938036,0.64378384,0.672199756,1.572870739,0.298194622,0.662481664,0.370917773,0.081234455,0.242438956,0.155074671,0
2.920656199,-1.028503125,-0.233751172,5.773791066,10.95826118,-5.208885078,-1.324442484,0.134685676,-0.210037039,12.30067218,4.516785925,2.719503272,2.047340107,2.880048806,4.807453865,3.019510643,1.835865016,3.396105725,1.891406681,4.253214203,14.127882,0.458807,4.3911,-4.8853,16.59404882,11.54758213,0.87835029,0.150632544,0.460044784,0.841083697,2.595018755,0.4556265,1.950449315,0.229636615,1.125658071,1.032474283,0.504251827,0.687858352,0.141906074,0.275109573,0.323621666,0.274162678,14.45068409,0.467502344,0.081205169,0.4747707,0.07419007,0.598473607,0.752123591,0.151781696,1.733659357,0.582415784,0.907495212,1.250387075,0.428058804,0.529028003,0.336428007,0.504006714,0.194914799,0.154306394,0
2.96815973,-1.338549219,-0.301478516,5.239178906,11.07842015,-5.533149773,-1.184082363,-0.156343238,-0.557801156,12.55262099,3.860135419,2.475760922,1.543294717,2.579801341,4.238054068,2.688245163,1.463401679,2.984876967,1.595866008,3.566278385,10.993251,0.357911,3.6133,-4.6159,15.12698097,10.47835781,0.29560539,0.735227991,0.524663714,0.787198612,2.443808495,0.322150032,1.554940471,0.756753764,0.588276263,0.792779053,0.225417073,0.999176935,0.120443029,0.35255541,0.244636323,0.05810984,11.13490277,0.602957031,0.041851353,0.24012149,0.439931714,0.178459792,0.303382364,0.337710932,1.04692403,0.764690277,0.236383547,0.721432325,0.280407303,1.041239799,0.344788352,0.39679601,0.307259764,0.254560805,0
2.083239836,-1.028999609,-0.247573047,4.783829883,10.01988373,-5.594650777,-1.180341387,-0.163847953,-0.741954242,11.65746668,4.038965625,2.28915357,1.402946751,2.469153355,4.346415071,2.50650554,1.363928183,2.830651144,1.459533083,3.675444612,10.628701,0.357911,2.7946,-3.8867,16.05652145,9.567659766,0.43009452,0.183290694,0.357315135,0.652582737,2.422794536,0.303188039,1.351021564,0.591313408,0.518639724,0.736323412,0.282578512,1.178321221,0.098068212,0.106460863,0.167333423,0.131108583,9.232969311,0.495146094,0.181402613,0.406753047,0.295798231,0.218639522,0.547349815,0.00752428,1.2483891,0.536156195,0.210875803,0.379621449,0.085877551,0.909104229,0.205522222,0.286502591,0.217385717,0.156850861,0
2.440503883,-0.892594141,-0.352524219,5.105656348,10.15515612,-5.730671348,-1.267580141,0.11567068,-1.049211555,11.84618322,4.259129564,2.157694219,1.816372465,2.627616216,4.468038715,2.677746888,1.759330899,2.74965343,2.260588366,3.699507936,11.868495,0.42599,2.7115,-5.719,15.67917413,10.2113127,0.656847063,0.206170221,0.503680139,0.57640908,2.313676912,0.911472282,1.740276475,0.290005308,0.416336396,0.965837924,0.297044863,1.213960179,0.375688713,0.25811143,0.156062245,0.154605677,11.19762745,0.705048437,0.194398572,0.483012422,0.245742473,0.153504323,0.842570844,0.571427001,1.471891323,0.70080406,0.539986335,0.672456278,0.204056468,0.995649362,0.387291127,0.321914807,0.503081003,0.139820701,0
2.814267543,-0.889016797,-0.364559375,5.131999402,10.62606571,-5.538387082,-1.358410199,0.235111813,-1.176515176,12.15630129,3.973820894,2.298162497,1.986332382,2.743037961,4.133890642,2.905557293,1.913438457,2.714240716,2.478543451,3.44955609,11.868495,0.770007,3.7016,-5.719,14.56369773,10.2639988,0.349177899,0.087069829,0.191605134,0.716843903,2.798109516,0.372681616,1.731507218,0.588904301,0.401016152,0.880711478,0.153720603,0.996678805,0.433807946,0.145788294,0.11652762,0.329530319,12.17207789,0.72911875,0.071846261,0.432025905,0.510433054,0.191080121,0.978375535,0.418306555,1.754132937,0.492475253,0.798471997,0.432513749,0.526205246,0.894716551,0.514628966,0.474937977,0.326568134,0.279405454,0
2.566298031,-0.791150781,-0.271969922,4.812923094,10.70028595,-4.932354785,-1.374122164,0.042852551,-0.763447109,11.98262214,3.791880559,2.361484072,1.653636048,2.609793135,4.062224817,2.744733748,1.590241581,2.715535081,1.852933593,3.507298229,11.510532,0.80715,3.7016,-4.2938,14.76638644,9.625846188,0.468147576,0.157696018,0.591196213,0.472820479,2.662427511,0.419356565,1.663727143,0.352137734,0.567278221,0.704396938,0.262278067,0.848748219,0.054785551,0.09417716,0.305308898,0.120860517,11.56162896,0.543939844,0.02833377,0.485172833,0.250345185,0.32226663,0.325627039,0.249458556,1.326727471,0.648249354,0.373406972,1.166979801,0.332478974,0.494965766,0.158974334,0.25582976,0.472525404,0.366059769,0
2.586153504,-1.137322266,-0.279926953,4.783668773,10.78303549,-5.203647734,-1.311872906,-0.222099715,-0.487398277,12.14760884,3.636538827,2.27171238,1.513041938,2.418873819,3.922446289,2.561870145,1.481001976,2.882060554,1.414190565,3.325274383,10.430555,0.689188,2.6538,-4.0582,13.94175004,9.567337547,0.258029002,0.451639683,0.416626755,0.787541252,2.370279315,0.760867315,1.350643755,0.553588601,0.564265955,0.726767081,0.129128055,0.873528316,0.187239219,0.225559818,0.155357,0.044509757,9.820810248,0.559853906,0.114837812,0.308565782,0.399734099,0.201277995,0.158025251,0.454243764,1.370448916,0.215247547,0.174503857,0.711783748,0.400235286,0.714906498,0.296274542,0.530892,0.349502313,0.108690409,0
1.914613266,-1.032129297,-0.229224609,4.705955457,9.941174348,-5.470601254,-1.262043559,-0.300475734,-0.463290766,11.52998553,3.929884634,2.207295299,1.663152791,2.391607008,4.205524111,2.453550526,1.593141496,2.945784586,1.415859602,3.558626819,10.430555,0.641816,2.764,-4.1324,15.30182679,9.411910914,0.186403577,0.318630376,0.272949674,0.840803704,2.325994533,0.66464866,1.366120819,0.429004214,0.830166918,0.610068473,0.37194519,0.81108159,0.035086423,0.127876323,0.052272127,0.095741538,9.953964751,0.458449219,0.208139024,0.595662751,0.24647004,0.345689852,0.432700766,0.252089954,1.596305471,0.409576591,0.878173605,0.546019107,0.055910742,0.555850032,0.148826415,0.49079271,0.16467243,0.093159546,0
2.276605441,-0.880086328,-0.3374625,5.026457777,10.05729317,-5.631012758,-1.310526137,0.175268758,-0.671933926,11.71559423,4.216944536,2.135406991,1.872286679,2.579559625,4.394601107,2.651458102,1.789422848,3.135596162,1.680735639,3.704796134,11.488301,0.436827,3.0185,-4.1962,15.89467208,10.05291555,0.208861603,0.411304561,0.461726408,0.815923833,2.311046245,0.335562456,1.833575991,0.43133503,0.591400948,0.948297419,0.341506353,0.88951041,0.29518865,0.441672606,0.323208737,0.315200648,12.20580062,0.674925,0.110969235,0.543371681,0.372147217,0.311980272,0.857085588,0.438181198,1.419949304,0.615203824,1.145725173,0.663306964,0.530732284,0.6178406,0.187558021,0.321006624,0.285732611,0.157362974,0
2.685903492,-0.769715625,-0.364534375,4.835023453,10.5308962,-5.399822621,-1.40569566,0.443942719,-0.688302305,11.98943954,3.786388762,2.133626457,1.785604177,2.576714153,3.917943939,2.687757315,1.718119943,3.038036218,1.757197583,3.290165204,11.488301,0.436827,3.0709,-4.1962,13.36305693,9.670046906,0.412645996,0.418682533,0.046399339,0.428879158,2.5212794,0.825649229,1.868834923,0.04557359,0.517795031,0.87208965,0.245909567,0.692359673,0.157444462,0.258485903,0.26315259,0.086823385,11.24149709,0.72906875,0.139537071,0.50855523,0.45009269,0.284596459,0.925293569,0.380892673,1.310653449,0.617901409,0.747973232,0.910088654,0.411059951,0.661520226,0.098148938,0.436622558,0.134950472,0.13335884,0
2.62593357,-0.753611719,-0.366719531,4.968195098,10.6886142,-4.999093145,-1.538873156,0.149159457,-0.750158152,12.00857047,3.918675503,2.316217938,1.855658731,2.660700962,4.158373309,2.750000975,1.751335938,2.810916043,1.996355976,3.584668819,12.199228,0.848517,3.5788,-4.9196,15.16532259,9.936390195,0.538728132,0.259205326,0.657068721,0.77237663,2.528331387,0.614242213,1.766460336,0.646643627,0.594962202,0.728235389,0.448549187,0.784224691,0.137999974,0.173616347,0.101718415,0.402010052,11.95275782,0.733439063,0.178653247,0.441526571,0.199260119,0.425404228,0.623858674,0.648636897,1.798644437,0.294657213,0.504083625,0.75995559,0.358457959,0.635762879,0.343810174,0.09111551,0.493130006,0.230264477,0
2.960501152,-1.309400781,-0.377379688,5.657521129,10.98803903,-5.520729852,-1.540668813,-0.275732785,-0.968148426,12.4846455,4.354935682,2.580506444,2.012919852,2.87928649,4.619180431,2.904835178,1.897651771,3.051647779,2.194306099,3.994727748,12.666127,0.394719,3.5788,-4.9196,16.13101025,11.31504226,0.149865641,0.256759343,0.553372872,0.965889593,2.701766035,0.509973547,1.663062719,0.79189542,1.145297899,0.796727364,0.184661628,1.099919353,0.239800762,0.113283514,0.226547426,0.212956464,11.7359969,0.754759375,0.099902025,0.46055855,0.542446022,0.609281123,0.849922576,0.536928983,1.825549745,0.10436366,0.575338309,1.026222131,0.355990759,0.865719257,0.064188753,0.25350916,0.255829849,0.064292456,0
2.24156052,-1.193450781,-0.266810547,5.420958453,10.14153907,-5.756109789,-1.301697535,-0.394470211,-0.736638793,11.81609862,4.643309995,2.489691531,1.733289402,2.810070852,4.899093029,2.624509705,1.645290252,3.095221531,1.908089379,4.21124006,12.977549,0.394719,2.5842,-4.3803,17.29040474,10.84191691,0.292858525,0.386904942,0.371714827,0.500291132,2.702586643,0.338043016,1.44350621,0.847100816,1.272938574,0.95201094,0.531830243,0.92930745,0.133419355,0.506936783,0.130703973,0.38278658,10.62568843,0.533621094,0.241880847,0.501783097,0.468350477,0.072705847,0.932520542,0.409999726,1.480631476,0.587728347,0.749434291,0.601998787,0.264216867,0.490304405,0.369826576,0.383574068,0.105101394,0.104166053,0
2.142733559,-0.782561328,-0.354936328,5.011404281,9.889100418,-5.638793883,-1.297657309,0.199002555,-0.598505328,11.55704605,4.458002635,2.047959326,1.74518801,2.707235022,4.632365801,2.467383506,1.67100526,3.025799584,1.771623273,3.918677745,12.977549,0.269516,2.62,-4.819,16.43059924,10.02280856,0.572441499,0.373579686,0.291599531,0.374453731,2.245437233,0.492623662,1.725030018,0.567535125,0.460919032,1.142744193,0.755072821,1.578198716,0.087344645,0.296546321,0.232215554,0.18879995,11.56526239,0.709872656,0.098418362,0.314201229,0.128809481,0.157089712,1.066621539,0.27079195,1.067792931,1.01388845,0.236847265,0.756103922,0.340728226,0.99150743,0.245215855,0.143511248,0.370025847,0.239973206,0
2.496729285,-0.702143359,-0.390669922,4.907674988,10.30374625,-5.356876648,-1.537676043,0.482155188,-0.579219055,11.78363185,4.073160223,2.095371487,1.843056907,2.678074917,4.184839824,2.633742048,1.803030864,3.141443202,1.781174955,3.530575956,12.460022,0.269516,2.62,-5.0208,15.38803072,9.815349977,0.532849674,0.60863487,0.303909569,0.354997847,2.523629544,0.993183771,1.561570936,0.479094141,0.15079758,1.009762353,0.365161139,1.241866331,0.145559409,0.158898761,0.269304319,0.275266907,10.79483268,0.781339844,0.074199033,0.203551838,0.528494615,0.171101638,1.263848529,0.260429147,1.095889428,0.125115462,0.949593568,0.58649232,0.273690223,1.217879354,0.179631049,0.123983373,0.242204098,0.059019839,0
2.573404668,-0.742500781,-0.413812891,5.103970496,10.59254687,-4.992808383,-1.618480355,0.266754078,-0.48516002,11.93806424,4.234932342,2.295914578,1.720782446,2.731558514,4.464078777,2.715737321,1.720156831,3.125171277,1.677881859,3.821771028,12.460022,0.71517,2.5145,-5.2489,15.53238117,10.20794099,0.460829974,0.76408595,0.215519579,0.531699623,2.579749935,0.682646904,1.738864763,0.232999075,0.79099131,0.574171825,0.546598679,1.223978502,0.203261223,0.28919827,0.213814791,0.252317945,12.37383048,0.827625781,0.176618905,0.425219371,0.309413926,0.279509151,1.117406081,0.614819054,0.888475917,0.537396046,0.404430428,0.565847996,0.283630971,1.127759525,0.221483467,0.344687891,0.506478032,0.190654191,0
2.837182402,-1.279666016,-0.339271875,5.35260084,10.85486163,-5.55589468,-1.415721402,-0.159503828,-0.476219273,12.3832836,4.163347083,2.43866763,1.606788069,2.648441796,4.490537862,2.662899846,1.60702577,3.232731292,1.426067481,3.802182842,11.542509,0.704582,2.8816,-5.2489,15.11683279,10.70520168,0.258202466,0.377886347,0.500221967,0.90335741,2.468044209,0.445475769,1.665883144,0.562588459,0.603640503,0.862508252,0.36094466,1.130523745,0.15736879,0.284605838,0.085654375,0.227816941,9.965637641,0.67854375,0.077130725,0.311216469,0.447982078,0.171112227,0.618515242,0.04128337,1.233857836,0.267446779,0.445535317,0.77232829,0.60400214,0.962546964,0.259185262,0.473172317,0.142609589,0.34890846,0
2.128412887,-1.258061328,-0.247060547,5.319537039,9.878775516,-5.973533227,-1.337460918,-0.423249891,-0.475652641,11.75466026,4.47415411,2.51595558,1.466529214,2.524919489,4.844202284,2.626736037,1.481993647,3.427723074,1.182933569,3.987281063,11.981653,0.704582,2.8816,-4.1895,15.46177076,10.63907408,0.147613988,0.033948406,0.307033163,0.706721092,2.610212061,0.036453387,1.293518445,0.722966088,0.421838957,0.967569801,0.252024002,0.866413186,0.427060145,0.338958656,0.077859594,0.095411316,9.667790317,0.494121094,0.343410807,0.616079404,0.365531838,0.396084403,0.50889388,0.067516415,1.123114984,0.372624458,0.690722499,0.56222216,0.332268542,0.6301699,0.197679773,0.175103345,0.317231311,0.13438117,0
2.687787867,-1.088260547,-0.478282813,5.773100172,10.12313371,-6.152948699,-1.561767668,0.347933012,-0.617630121,12.07906124,4.929515694,2.549572493,1.725505969,3.014365263,5.179647989,2.983944027,1.742316684,3.839257251,1.551698458,4.241481735,13.888168,0.780399,3.6941,-5.477,17.15321193,11.54620034,0.403031252,0.057414356,0.524484361,0.689806693,2.952715588,0.543401354,1.810378919,0.773324643,0.139278692,1.128934481,0.630066787,1.253281525,0.266182006,0.106888712,0.425477037,0.03768678,11.38534265,0.956565625,0.214214489,0.567345551,0.329253047,0.127966544,0.91139262,0.617050134,1.124553454,0.911362436,0.528019753,0.567446183,0.145872123,0.863448525,0.108659734,0.29831236,0.340648416,0.30062914,0
3.189158559,-1.132915234,-0.476184766,5.619628898,10.76687466,-5.963806789,-1.670105273,0.619726434,-0.64075123,12.49255919,4.468684688,2.501316865,1.910769318,3.15872113,4.588071304,3.147652674,1.853649575,3.767805661,1.798215029,3.793069008,13.888168,0.786925,3.6941,-5.6725,17.05394164,11.2392578,0.446494246,0.268189749,0.437575834,0.300118875,3.281018734,0.67080445,1.786398502,0.711143218,0.296296438,1.220581932,0.495579841,1.136597848,0.336244129,0.105126666,0.595017163,0.1860415,12.14507575,0.952369531,0.145526333,0.564699072,0.430172327,0.256168281,1.190939669,0.387567889,1.585627241,0.443469851,0.428947674,0.692410589,0.290852386,0.680631704,0.523453303,0.127489849,0.551522814,0.340811406,0
2.835694516,-1.227311719,-0.363044531,5.068362359,10.734104,-5.666925813,-1.512536906,0.082550504,-0.679564305,12.3714612,3.869107248,2.32896488,1.747491989,2.727408463,4.113127477,2.947547089,1.668079899,3.088301129,1.951911947,3.33795004,13.162401,0.786925,3.0517,-6.3856,16.09860718,10.13672472,0.360938466,0.290461947,0.33225684,0.914329899,2.752803369,0.677210515,1.030741462,0.513599424,0.625175634,1.253476236,0.372662967,1.064053318,0.262707531,0.328999698,0.340416112,0.383638111,11.11404688,0.726089063,0.108829351,0.413476789,0.485589758,0.489688868,1.390893343,0.245059007,1.198469168,0.442129003,0.314434484,0.574177747,0.338313296,0.705094887,0.260672195,0.170432615,0.382648359,0.09621197,0
2.890999207,-1.544362109,-0.382148047,5.044247703,10.80024383,-6.040271617,-1.351377246,-0.179199469,-0.848706695,12.58857135,3.693629452,2.269602173,1.489960151,2.541358961,4.066081284,2.69766905,1.464248239,2.7902722,1.927520149,3.191446545,12.423178,0.647635,2.1258,-6.3856,13.63597504,10.08849541,0.160624582,0.118367631,0.236793598,0.503875424,2.764508049,0.348261883,0.923419098,0.699801813,0.975343684,0.854045213,0.289053625,0.931617605,0.314040309,0.442913475,0.428134425,0.19759774,9.694177266,0.764296094,0.017095564,0.276039002,0.550592706,0.4601566,1.156180789,0.184825624,0.832411712,0.491675161,0.2926114,0.115649963,0.203152552,0.830016386,0.090025351,0.34679774,0.333533957,0.133229301,0
2.214813262,-1.35596875,-0.304825,4.780184,9.874585633,-6.276100445,-1.313967824,-0.260592023,-0.795928598,11.96342377,3.904489557,2.118301886,1.390057936,2.377248352,4.348837105,2.476955397,1.40602203,2.803879095,1.73884701,3.307224675,10.99836,0.647635,1.5622,-5.4609,14.62445224,9.560368,0.119888355,0.30509815,0.225926473,0.71318906,2.182192278,0.160919635,1.250740449,0.496878845,0.786727288,1.086389502,0.317411573,0.983291197,0.241488219,0.444133892,0.589669626,0.327820973,9.258890593,0.60965,0.18670372,0.460222777,0.384131333,0.586744553,0.813438485,0.200406716,0.84035477,0.605136628,0.577117425,0.158140821,0.172080188,0.654646839,0.155304975,0.450924869,0.138674506,0.145671341,0
2.686934738,-1.007669531,-0.529537891,5.138358699,10.19047063,-6.103269027,-1.634341922,0.47756993,-0.945345465,12.10423729,4.251066745,2.145688027,1.6354561,2.731841438,4.500592862,2.645986241,1.658777739,3.290468351,1.923015773,3.408122395,12.391806,0.709593,1.5622,-6.0491,15.37650302,10.2767174,0.186597059,0.453205645,0.314152035,0.758667203,2.617916415,0.571529518,1.410988187,0.272942553,0.509942329,1.314213157,0.352101428,1.055057906,0.173338643,0.888966908,0.465588614,0.166106192,10.08966699,1.059075781,0.242437691,0.616505459,0.196891197,0.166807918,1.093965647,0.40132918,1.364557522,0.256819646,0.180332951,0.428591686,0.262195141,0.704137099,0.303787683,0.425902561,0.147416617,0.180524475,0
3.199022633,-1.005720312,-0.509700781,5.556955668,10.87386558,-5.659743207,-1.774552352,0.589068121,-1.083010875,12.43944673,4.452180018,2.498214059,1.776482939,3.137535464,4.544356897,3.152166815,1.707504129,3.459369383,2.243091293,3.696909786,14.686741,0.713207,3.2065,-6.0491,17.40095557,11.11391134,0.781794129,0.301275973,0.23199022,0.763226789,3.174311385,0.853834015,1.779169058,0.429337306,0.693155459,1.147774029,0.307603065,1.061646769,0.263158952,0.334183237,0.517816741,0.347027708,10.56842618,1.019401563,0.173569701,0.49178189,0.430980985,0.463993925,1.163223415,0.351116243,1.511217448,0.160249052,0.789984355,0.169319204,0.200340858,0.586227102,0.037876726,0.535884123,0.237844919,0.150549202,0
3.038449988,-1.341078906,-0.366298437,5.513490469,10.89855579,-5.699247535,-1.55757782,0.041558754,-1.175645961,12.53765753,4.384775126,2.567110791,1.750489371,3.105928332,4.66722217,3.140205517,1.615373812,2.940645656,2.471482855,3.821900301,14.686741,0.713207,3.2065,-6.4192,19.7083716,11.02698094,0.747869319,0.442750438,0.650830322,0.756782398,2.993791815,0.2463642,1.508000414,0.441898738,0.902268253,1.409124769,0.690359724,0.976368998,0.087243589,0.744566078,0.325799572,0.25475622,11.15368533,0.732596875,0.116364313,0.551297642,0.47483497,0.58051049,1.140685852,0.435124903,1.397325024,0.451791578,0.350070964,0.504462482,0.05528789,0.587105576,0.233618767,0.244559169,0.455813205,0.213396482,0
2.949337098,-1.685663281,-0.4243125,5.406462371,10.79844821,-6.232705586,-1.467944898,-0.023282254,-1.415123934,12.66510519,4.158641865,2.42534123,1.602737677,2.86977429,4.453930078,2.838684759,1.510700949,2.372091842,2.646093714,3.57059761,13.712454,0.851264,2.77,-6.4192,17.01687052,10.81292474,0.189100277,0.469984697,0.973248319,1.016869111,2.657468186,0.521545455,0.8961219,0.996618857,0.980375959,1.301960324,0.229650291,1.094474742,0.248645554,0.476897695,0.43626753,0.238203958,10.40970364,0.848625,0.062523302,0.147690173,0.491971574,0.42145411,1.094522026,0.253767792,1.162856221,0.611972319,0.263909609,0.100848388,0.242554604,0.737978279,0.159369023,0.271907299,0.491024333,0.017911557,0
2.431733184,-1.521788672,-0.341377344,5.337271,9.914239637,-6.574627531,-1.426944191,-0.117444719,-1.42096791,12.18539519,4.426523437,2.598515691,1.268145369,2.795322679,4.876234571,2.916227838,1.277144485,2.309539809,2.489672959,3.926569327,12.985107,0.502156,1.7805,-5.8946,17.67903873,10.674542,0.455094034,0.399808989,0.934167296,1.172769193,2.606151708,0.312069264,1.199428216,0.189156294,1.078230391,0.931859207,0.423882411,1.162761103,0.304874066,0.432227205,0.478992812,0.156480003,8.680917613,0.682754688,0.197948529,0.369821816,0.213283334,0.600674443,0.922202209,0.317384537,0.637217639,0.075218554,0.343370405,0.336267462,0.383722248,0.30394233,0.499835,0.17987514,0.196444177,0.369916124,0
3.075626523,-1.375521484,-0.480826953,5.682883895,10.31452021,-6.734141191,-1.543511887,0.199631945,-1.677671043,12.5573317,4.625886204,2.577048736,1.271980488,2.990902855,4.974428033,2.993387984,1.294873672,2.374157377,2.77652971,3.951666003,13.519172,0.3569,1.7046,-3.7473,16.64319924,11.36576779,0.20186849,0.31000498,0.451995352,0.914568739,2.870302734,0.368380236,1.786818945,0.172519035,0.910144341,1.177724688,0.479782504,1.200415127,0.23705637,0.734122486,0.34659283,0.10705682,8.708773589,0.961653906,0.143985807,0.548822519,0.23277887,0.16823543,1.042369734,0.393348435,0.596209688,0.469850285,0.404911977,0.401674945,0.481888779,0.149102515,0.218107322,0.187569617,0.265611137,0.24651552,0
3.368586688,-1.224640234,-0.495939453,5.341752484,10.91845755,-6.17195268,-1.623867301,0.166981488,-1.470756875,12.72732979,4.072783989,2.358188711,1.300801682,2.898182808,4.241852395,3.006145489,1.284093503,1.854665684,3.176697616,3.30373343,13.519172,0.3569,1.7046,-3.7473,15.82737606,10.68350497,0.372354662,0.324348215,0.181751637,0.584431202,2.774736455,0.993760367,1.879128913,0.493685628,0.729509879,1.053965358,0.23675808,0.924785486,0.24490113,0.642180723,0.349558132,0.117775017,8.571835111,0.991878906,0.133745363,0.546908142,0.156610116,0.070529496,1.013880785,0.254285932,0.673041841,0.520608646,0.460997814,0.474032755,0.054118247,0.526507305,0.04841591,0.324745108,0.121332343,0.289629247,0
2.954333973,-1.122097266,-0.444667969,4.910492738,10.849325,-5.505317168,-1.712003859,-0.28906391,-1.053371391,12.46729463,3.690108939,2.283943706,1.198701431,2.518366311,4.066063492,2.864952417,1.218972267,1.224521037,3.041871248,3.129701232,12.432869,0.435623,1.338,-4.6497,14.13306825,9.820985477,0.215692498,0.184937911,0.565377105,0.631711598,2.358248527,0.650745374,1.491407377,0.46795693,0.916095497,1.001362931,0.403699336,0.761800343,0.1464732,0.600164675,0.078730526,0.090333085,8.711320755,0.889335938,0.10509977,0.392140947,0.377649372,0.244308195,0.727056762,0.174436779,0.637230558,0.01691649,0.417508475,0.569500773,0.382479631,0.494621002,0.125474874,0.346394531,0.254774866,0.235818782,0
2.730149594,-1.320521875,-0.435627734,4.720369484,10.71105988,-5.652261316,-1.659032152,-0.304674328,-1.197793297,12.36598655,3.608522479,2.144685625,1.104960663,2.438734545,3.911424362,2.632007832,1.136533906,1.087387417,2.79086556,3.08693446,12.432869,0.435623,1.338,-4.6497,14.86614458,9.440738969,0.436160818,0.152411107,0.448878146,0.758540248,2.220072251,0.34423065,1.566208148,0.248564377,0.811869424,0.692117132,0.418262232,1.014856192,0.270738436,0.540552224,0.143759309,0.125166059,7.795882141,0.871255469,0.097436182,0.320438167,0.456090588,0.518780006,0.455669214,0.157734366,0.63504451,0.100215689,0.400813259,0.373745737,0.225922787,0.484721023,0.188138245,0.346232349,0.165529439,0.159293316,0
2.038241395,-1.254845703,-0.337627734,4.379902859,9.860070793,-5.995380309,-1.592892324,-0.103328043,-1.175995609,11.80521012,3.542422254,2.06002048,1.044958718,2.131639467,3.913964898,2.35038426,1.138125685,1.052488892,2.569279219,3.062039777,9.731245,0.513571,1.5821,-3.4067,14.579561,8.759805719,0.387676127,0.787754227,0.255322004,0.753004653,1.934796462,0.28719466,0.897222887,0.757164037,0.716669014,0.44348421,0.379206897,0.839438224,0.077414918,0.477266291,0.381502972,0.17966594,7.608103086,0.675255469,0.250155113,0.555063552,0.189627549,0.314386902,0.641203474,0.122763307,0.326833484,0.348858076,0.428395055,0.483832237,0.189232259,0.389896637,0.085067596,0.222555121,0.151249964,0.207393231,0
2.364152328,-1.1401125,-0.472866406,4.579474559,9.909451164,-6.214000844,-1.801786406,-0.421409855,-1.287812824,11.97531866,3.685058622,1.932684118,1.328014672,2.284652088,3.994707669,2.380151034,1.375815615,1.507168378,2.63074214,3.025179542,11.15215,0.866178,1.5821,-4.4617,14.94431273,9.158949117,0.526977326,0.239514466,0.287140337,0.700995371,1.854133331,0.337083977,1.172943205,0.232519516,0.844542368,0.878769872,0.459804513,0.895624174,0.391631721,1.147008586,0.054550388,0.269102596,10.2204803,0.945732813,0.118614543,0.441426439,0.320340187,0.138747691,0.849823753,0.296539148,0.881821043,0.334973618,0.432825366,0.542298742,0.401546561,0.489782352,0.151972412,0.268184926,0.141124591,0.177129936,0
2.770158969,-0.965566406,-0.557234375,4.510788637,10.37916361,-5.891831121,-1.97940623,-0.465772945,-1.050094656,12.17648053,3.354619897,1.827742113,1.475012131,2.310664573,3.550150851,2.457358823,1.410338097,1.681222513,2.806260535,2.591776242,11.15215,0.866178,1.6724,-4.7314,13.13124261,9.021577273,0.196707379,0.21971004,0.30365646,0.08793365,1.890063663,0.559027466,1.532750119,0.258108527,0.849348714,1.000994791,0.374471178,0.873502119,0.30408942,0.910178951,0.468562722,0.241573114,9.021371275,1.11446875,0.221783185,0.433378509,0.173299071,0.262683064,0.715818205,0.479697902,1.384905794,0.147462236,0.411098536,0.539491418,0.167895896,0.552692078,0.03096211,0.300086798,0.135030898,0.106186593,0
5.261518668,-1.946501547,-0.893167188,7.835810461,12.46137088,-6.89979002,-2.154182984,-0.073535297,-1.334252723,14.53303605,5.560135817,3.273983435,1.789557131,3.963188104,5.836570637,4.122566809,2.003155679,2.520418239,4.861505635,4.430078577,17.282617,0.780178,2.5253,-5.6088,20.62164878,15.67162092,0.308218246,0.779596669,0.469761579,0.648321346,4.434313897,1.032752221,1.948134183,0.46302334,0.803204549,1.466288425,0.226387786,0.919068286,0.334813651,0.429250669,0.547680162,0.366665101,10.44683381,1.786334375,0.058801322,1.229480432,0.844841275,0.40319079,1.258105222,0.453220198,0.86814929,0.498249641,0.349998675,0.278041885,0.213680369,0.683194023,0.387405667,0.198422853,0.088420048,0.048602011,0
4.894455387,-2.038467934,-0.762439844,7.533461578,12.43084489,-6.476016301,-2.193088762,0.187734937,-0.627416969,14.44058017,5.125635602,3.698811195,1.736522824,3.861110097,5.692936447,4.26367009,1.820327161,2.729520126,4.347816758,4.456824496,17.282617,0.76012,2.4068,-5.6088,18.87988806,15.06692316,0.067507619,0.48514175,0.766475141,1.118507834,4.46941223,0.653913141,1.164562431,0.863272445,1.252880063,1.402594312,0.257152774,0.595969419,0.304144196,0.638283212,0.488979984,0.235699318,13.0782049,1.524879688,0.152666487,0.674430388,0.71120377,0.391213492,1.096098976,0.237825969,0.882296705,0.474847248,0.682149368,0.883178164,0.439924492,0.347986218,0.349788723,0.594618181,0.302620823,0.359533978,0
4.914195613,-2.798610523,-0.618613672,7.86033125,12.41318764,-7.323563754,-1.720233926,0.735370848,-0.415011613,14.72948754,5.140008801,3.629525031,1.583453653,3.560882155,5.765935908,4.133468251,1.599552058,2.767142892,4.578912376,4.156540936,16.443459,0.76012,1.912,-6.0006,17.68294207,15.7206625,0.465354715,0.614786571,0.495676592,0.89634679,4.083522907,0.484109706,0.841910807,1.211033008,0.98232895,1.348633835,0.317234103,0.654460135,0.335283195,0.620364546,0.67756305,0.1757563,10.75440335,1.237227344,0.051819141,0.370637236,0.812332546,0.275110976,0.788116347,0.655752114,0.869143021,0.641289815,0.440985585,0.820761905,0.257615283,0.260858499,0.343138337,0.262703417,0.52383659,0.324045785,0
4.144196816,-2.654351945,-0.587005469,7.492773977,11.30811389,-7.719804148,-1.528847422,0.267388809,-0.650460477,14.09537294,5.665096685,3.241948376,1.476387,3.634024232,6.253996871,3.9017672,1.607265484,2.493637491,4.827224388,4.246327553,17.415416,1.594575,1.4802,-6.0006,20.82224544,14.98554795,0.982941297,0.803913128,0.240957259,1.170253872,3.85935939,0.48879397,1.355481436,0.217618853,0.614509518,1.631623164,0.455274724,1.032367997,0.163573548,0.817373628,0.72488034,0.171528578,10.13360232,1.174010938,0.240679501,0.7991591,0.538502443,0.70788617,0.548705126,0.341209237,0.907088609,0.357173449,0.551331965,0.320990157,0.051583482,0.49505401,0.358814708,0.522691775,0.224625516,0.151903634,0
4.581182727,-2.311194918,-0.704861719,7.596967484,11.53167249,-7.684938535,-1.660827789,-0.070092758,-1.503736648,14.17665776,5.876891717,3.004285403,1.72358225,3.95551431,6.222776552,3.890937027,1.861486273,2.766286538,4.753986434,4.315910047,17.415416,1.931968,2.0841,-6.7282,20.63178839,15.19393497,0.771022137,0.89750151,0.570243825,0.751527558,4.450325635,0.928512682,1.733606187,0.376462275,0.871582877,1.162993383,0.411369515,1.015387448,0.41171012,0.842991822,0.516724684,0.214153954,11.81070573,1.409723437,0.315087716,0.856557292,0.628821417,0.31823916,0.843915382,0.286266024,1.12415767,0.431266774,0.323053957,0.642045619,0.402575057,0.806290809,0.319390815,0.714102583,0.068742582,0.272259297,0
5.287032324,-2.177189824,-0.734434375,7.882058875,12.47528721,-7.244704711,-1.798195125,0.238974305,-1.983687602,14.68063002,5.558299456,3.470740508,1.784829278,4.15111482,5.811466374,4.369881332,1.804847182,2.973310687,4.493923362,4.350813128,18.052931,0.73239,2.0841,-6.7282,21.83719098,15.76411775,0.791579544,0.744443914,0.770935911,1.092510999,4.574839554,1.236483316,2.014902989,0.783142406,1.251579316,0.948238412,0.227583833,0.738168297,0.28325813,0.471269997,0.57530776,0.264272174,11.84530404,1.46886875,0.214662549,0.800424661,0.469511797,0.094383037,1.06405574,0.385997439,1.187823586,0.597488314,0.517324837,0.734780667,0.474036416,0.740386744,0.25884879,0.454071348,0.317816823,0.173758176,0
5.312218648,-2.621106598,-0.536089844,8.170283434,12.71725127,-7.23512791,-1.656937211,1.081442402,-1.352674379,14.98113408,5.535814209,4.002876938,1.529963422,4.199140002,6.174456761,4.527003498,1.611620516,2.965025824,4.503693034,4.639799692,18.052931,0.73239,2.5946,-4.9353,20.88424183,16.34056687,0.51269039,0.607074678,0.588748666,1.374160995,4.815499415,0.492594421,1.636918681,1.16902455,0.837950379,1.548525418,0.374903968,0.58671911,0.505188015,0.657525743,0.3617643,0.144122791,11.73800883,1.072179688,0.183470046,0.659709237,0.619252184,0.320885589,0.3680266,0.48485522,0.86490676,0.503141271,0.504116031,0.758717437,0.13444469,0.368444987,0.691926786,0.64002077,0.293140318,0.061027682,0
4.941004234,-2.831782777,-0.578035547,7.822277988,12.35393117,-7.542782805,-1.53198982,1.028814621,-0.627142492,14.74699977,5.16973253,3.612802767,1.561343236,3.714145627,5.849742797,3.946375478,1.644786875,2.789142917,4.454815273,4.220000685,16.183717,0.921168,2.5946,-4.3254,21.44401155,15.64455598,0.660152241,0.569650577,1.011176452,1.04472003,4.024365387,0.97931476,1.327961668,0.822281014,1.395128066,1.126951584,0.225678649,0.652660817,0.092281109,0.698876921,0.461552113,0.227872875,9.892482208,1.156071094,0.093619466,0.690827582,0.478836185,0.440159612,0.288845242,0.36077585,1.479507863,0.31161005,0.438828015,0.624338455,0.272753706,0.337068914,0.154563012,0.218464855,0.468841696,0.19914184,0
3.679537082,-2.091654281,-0.515908594,6.668614707,10.90109961,-7.26296048,-1.369782676,0.263480754,-0.025523945,13.47643327,5.012908361,2.850303095,1.629217402,3.101221657,5.657704134,3.372470468,1.733482981,1.924974422,4.462242429,3.814124544,14.027124,0.792002,2.3607,-5.1197,19.61140449,13.33722941,0.898261842,1.90905658,0.657195761,0.859662575,2.62772505,0.438240201,1.181876994,0.094983643,0.531995203,1.298575589,0.487544465,0.965725457,0.706203798,0.706720995,0.499367997,0.2205872,9.532982987,1.031817188,0.292915874,0.853274233,0.708981955,0.442402765,0.59573969,0.300001893,1.480012228,0.535282396,0.070729996,0.524338564,0.108150925,0.241183447,0.081501871,0.259949511,0.272196324,0.043140904,0
3.811565176,-1.680892184,-0.527853125,6.467413844,10.93057823,-7.064840297,-1.237503023,-0.030041809,-0.641146668,13.263768,4.849927073,2.491094527,1.895660425,3.020841951,5.33497736,3.053310881,2.056673903,1.845936249,4.606095798,3.460116511,12.711272,0.792002,2.3607,-6.4044,17.55337677,12.93482769,0.726399032,1.070055517,1.049076562,0.692333601,2.765250861,0.293132469,1.334774862,0.828830652,0.279858054,1.244804541,0.656863178,1.247593585,0.181894647,0.394859139,0.654802482,0.314114134,12.09321784,1.05570625,0.466274521,0.585241732,0.952274792,0.558099159,1.11286351,0.570163895,1.429500443,0.416109187,0.366276597,0.52474187,0.137066961,0.500402412,0.251573998,0.272333305,0.468829661,0.42741554,0
4.130280426,-1.394212109,-0.604649609,6.217188465,11.61157894,-6.249464969,-1.329679777,0.071878363,-1.085761648,13.43302685,4.14590635,2.491434153,1.852124674,2.746153706,4.439994246,3.387478892,2.160520767,2.552101438,3.872022668,2.8936134,12.711272,1.548442,1.8252,-6.4044,16.12489174,12.43437693,0.577944113,0.816506959,0.499732701,0.811277909,2.502827903,0.967472162,1.781552888,0.275724817,0.615229871,0.730048398,0.020510333,0.939155878,0.240849607,0.479130617,0.499315467,0.174609911,11.66402698,1.209299219,0.6010188,1.308460792,0.348031275,0.18554979,0.795391122,0.391230286,1.105258083,0.802387138,0.095347519,0.367989164,0.215594001,0.790054715,0.291117258,0.54455988,0.607052944,0.349117525,0
3.929810125,-1.760681641,-0.475376953,6.294041422,11.72814666,-5.956175254,-1.500865168,-0.546853406,-0.630407504,13.51869186,3.905792373,2.883156681,1.695567197,2.365837273,4.397830131,3.601772223,2.105097959,3.323328989,2.841174725,3.074877668,11.645792,1.67449,1.9672,-5.4726,15.17212304,12.58808284,0.382323417,0.605150576,0.583943154,0.469899312,2.390901794,0.90508024,1.011719552,0.55034271,0.374653379,0.819355641,0.083131508,0.576264691,0.446464074,0.30240144,0.115740123,0.203144552,11.13975516,0.950753906,0.393508683,1.234036317,1.174740251,0.099280611,0.447980966,0.220141081,0.662893788,0.108263511,0.255783113,0.595776788,0.324234757,0.545415425,0.435208715,0.197455202,0.610328029,0.051035955,0
3.276848785,-1.788708586,-0.563496094,6.668882316,10.57174722,-6.751948082,-1.74881468,-0.64293523,-0.714197602,12.92531035,4.974284035,3.565309563,1.796862083,3.234872303,5.538915526,3.855844561,2.044283811,3.949698086,2.486345659,4.51288102,15.846795,1.357964,2.3255,-5.7857,18.70780516,13.33776463,0.966592101,1.209780714,0.720282302,0.82345552,3.407259836,0.761678401,1.262011258,0.433897275,0.271275027,1.309278764,0.27331887,0.606550662,0.106608536,0.108140466,0.168927615,0.441769368,12.39541725,1.126992188,0.344105531,1.277108401,0.488526773,0.410195949,0.419216367,0.726236843,0.756592381,0.452577353,0.483461915,0.804299683,0.275892528,0.647636553,0.145591759,0.530877243,0.165286178,0.250272504,0
4.618183887,-2.763153105,-0.609008984,7.943871832,12.15177071,-7.347505758,-1.769763945,0.035479563,-0.391859219,14.40343266,6.05068995,3.835512609,2.09139264,4.682345385,6.361788904,4.325916544,1.861329544,3.844846205,4.191663137,5.240928212,20.813246,0.744466,3.5435,-7.8904,28.88142641,15.88774366,1.070676636,0.834625148,0.649894441,2.32522866,4.59746907,1.412784506,1.116305522,1.17121754,1.982325033,1.400237434,0.414021465,1.08605221,0.741814337,0.578207585,0.579566765,0.713044397,12.52487538,1.218017969,0.180120771,0.185856723,0.404162455,1.154787229,1.041453708,0.478016508,1.873197851,0.551625365,0.512619224,0.818269485,0.667627939,0.167276542,0.135111564,0.420189625,0.179725081,0.306556063,0
4.217608492,-2.67822459,-0.522364063,7.868512707,11.27220087,-7.882011262,-1.631049914,0.476390973,-0.644926945,14.159716,6.256602639,3.659695726,2.001335966,4.456935539,6.760331513,4.317863619,1.895068397,2.938944075,4.800609763,5.192549222,20.813246,0.883435,3.0434,-7.8904,24.17124702,15.73702541,0.800787568,1.725521644,0.226073664,1.953685208,4.421986732,0.612911035,1.983290168,0.224312512,1.653258192,1.29681844,0.335315747,0.957155001,0.642267681,1.041416188,0.489888365,0.268585876,12.7897307,1.044728125,0.293327055,0.639832935,0.578079704,0.651929097,1.204169295,0.774538439,0.878168,0.937438415,1.286789512,0.22777824,0.758994729,0.26297927,0.269543622,0.230384456,0.335174491,0.099884749,0
5.251746375,-2.758791777,-0.776156641,8.66892693,12.04463018,-8.165873785,-1.806425199,0.436519945,-1.758387609,14.88856336,6.704005182,3.479464874,1.743680438,4.55353471,7.014314058,4.481637209,1.85125789,2.56738604,5.404252879,5.194362232,19.7261,1.601582,2.2071,-4.6169,24.92372879,17.33785386,0.846343682,0.679001735,0.553859079,1.234377048,5.098522171,1.460072674,2.161798642,0.088821494,0.327181481,1.398195142,0.302272773,1.087051684,0.187147994,0.573312485,0.720922007,0.307751198,12.79326804,1.552313281,0.071781476,1.006137158,0.654443235,0.318916002,1.212481803,0.142873782,0.749016563,0.651101308,0.436548562,0.810619783,0.182610953,0.380191231,0.361300171,0.534071922,0.022276254,0.036850482,0
5.743401859,-2.617243719,-1.098105469,8.598837172,12.72383528,-7.749432324,-2.266560828,0.049455137,-2.252116492,15.29797374,5.796771458,3.893944934,1.853018135,4.393347894,6.147610165,4.816343328,2.223209013,2.683682904,5.112614576,4.536128565,19.7261,0.749911,2.2534,-4.8953,20.67474273,17.19767434,0.990153632,1.52709997,0.873872486,0.908444831,5.246870953,0.637764159,1.207162846,0.248507365,0.462024075,1.384207556,0.120232276,0.830447159,0.417688355,0.445964495,0.639741239,0.130952101,11.99253984,2.196210938,0.640622337,1.587055805,0.545001505,0.389404332,1.001838077,0.569356502,0.340827897,0.31578409,0.285652595,0.741932381,0.284349327,0.631938455,0.359952686,0.19698701,0.354902129,0.140137014,0
5.344506949,-2.650009723,-0.903013281,8.128170434,12.64766975,-7.349451,-2.310554254,0.421498227,-1.672792875,15.11236144,5.170104516,4.062895024,2.080258249,4.230739179,5.871230355,4.551898006,2.367393777,3.229395392,4.368861523,4.386000959,19.038373,0.749911,2.2534,-7.1943,21.32158013,16.25634087,1.063865459,0.91315436,1.588110409,0.994475987,4.717742085,1.406387084,1.026570174,0.28970191,1.334070344,0.981249965,0.481380923,0.472782988,0.58713005,0.816186541,0.494868634,0.145103355,14.70402026,1.806026563,0.277456207,1.237175793,1.069361674,0.16846483,1.490630937,0.306259465,0.855121517,0.57599856,0.786508171,0.64751796,0.551163412,0.514093036,0.297721202,0.534830059,0.232955532,0.19522653,0
5.227231141,-3.154757379,-0.630421875,8.418146156,12.57509553,-7.893234059,-1.820640711,0.713784344,-1.099463641,15.17058476,5.787947155,3.918191028,1.914196265,4.396064851,6.335947232,4.359743581,2.077548823,3.199710824,4.6395038,4.857016092,19.038373,1.134116,2.0775,-7.1943,21.48217115,16.83629231,0.333016731,1.477631035,0.983436041,1.645159399,4.883559524,0.886128339,1.628548441,0.937739964,1.05761683,1.10584072,0.201036704,0.680660653,0.426438151,0.712951385,0.662941597,0.301607263,12.41283543,1.26084375,0.361827183,1.268147914,0.840443783,0.430346194,1.140125394,0.337786979,1.124573101,0.602320502,0.691027191,0.670625159,0.144424667,0.460226179,0.231528153,0.132902466,0.258056425,0.14199635,0
4.447871758,-2.845174586,-0.657558594,7.944273703,11.34417659,-8.225130273,-1.607107836,0.146917742,-0.978038887,14.47659435,6.028248962,3.616404212,1.968864145,4.300473277,6.67941436,4.181952988,2.157604077,2.867677492,4.733831,4.949929895,18.89668,1.098053,2.9958,-7.1279,21.77034838,15.88854741,1.419839572,1.975557052,0.574678599,1.19531677,4.528948518,0.138949712,1.849975085,0.694164878,0.583076632,1.243683971,0.507820793,1.030162342,0.228884278,0.789657296,0.562245332,0.269361723,12.29601579,1.315117187,0.425674256,1.081526679,1.008523036,0.759047889,1.012179522,0.278025473,0.477123888,0.651996589,0.928555736,1.049199948,0.292562969,0.735589704,0.325090345,0.227897525,0.183741049,0.033996503,0
5.057341281,-2.390008195,-0.842270312,7.993061996,11.88227343,-7.83921491,-1.843834527,-0.136659191,-1.915537375,14.59793927,5.926737084,3.281049991,2.036327299,4.259970394,6.389057403,4.095222278,2.233298042,2.714903593,4.80204352,4.6262128,18.89668,1.098053,2.9958,-7.1279,20.46869877,15.98612399,0.939673953,1.471578436,0.322459554,0.96267668,4.614614992,1.21043594,2.251650251,0.227551231,0.456376873,1.152200496,0.18843027,1.07694833,0.099431315,0.855578319,0.464193035,0.112317684,13.3141087,1.684540625,0.406038948,1.126788346,0.798696265,0.442458203,1.327640466,0.34277797,0.612379917,0.512547561,0.501571309,0.967416441,0.957213676,0.801048679,0.131803282,0.593546556,0.171613164,0.2203535,0
5.160800305,-1.804618746,-0.867665625,7.409520371,12.59305208,-6.524648555,-1.984044969,-0.017565656,-1.97250348,14.48012516,5.079268229,3.059101949,1.713330223,3.719533443,5.266446839,4.061382008,2.031733749,2.448677203,4.407748499,3.802800344,17.968456,1.599343,2.7614,-5.339,18.84856269,14.81904074,0.811777632,1.439125219,0.480038492,0.251778324,4.235128067,0.667798585,1.632220215,0.230259995,0.533559748,1.112081153,0.260259019,0.892014221,0.275679584,0.290562186,0.593291257,0.305658749,11.80950663,1.73533125,0.509870438,1.31749051,0.799357141,0.446286337,0.832279303,0.415634877,0.533431582,0.450207357,0.469040244,0.520950111,0.378769981,0.444249888,0.214068406,0.264032185,0.429660588,0.22628429,0
4.591701121,-2.100523434,-0.548492969,6.952813805,12.29901415,-6.36244141,-1.766471895,0.085677367,-0.755415258,14.21640045,4.509753895,2.973545818,1.755606705,3.117234431,4.923820609,3.8016387,2.072811416,2.363312923,4.23671945,3.411857097,14.076246,2.095388,2.7614,-5.867,16.22449953,13.90562761,0.175829094,0.479757702,1.238336781,0.771946386,3.29590003,0.992131547,1.22445717,0.781373383,0.226655201,1.060719886,0.09336133,0.775962426,0.626967574,0.582392747,0.496731913,0.058444459,11.72870951,1.096985938,0.257940041,1.129178665,0.900442123,0.655999276,1.276801809,0.111780189,0.702005361,0.513987292,0.368651919,0.484383279,0.238132093,0.116710797,0.035588956,0.14535404,0.449872561,0.238863448,0
3.996846426,-2.401848824,-0.405144141,6.909579051,11.60230143,-6.919691883,-1.38070616,-0.389736602,0.023345715,13.78693287,4.953925666,2.958255905,1.67346557,3.202914435,5.34375626,3.638466081,1.855548814,2.228047766,4.442173026,3.835368858,14.356825,0.980305,2.5485,-5.867,17.6868726,13.8191581,0.253691121,0.621291665,0.32318459,0.711947406,3.725101489,0.497887691,1.026714429,0.823801096,1.155452775,0.740281144,0.31525395,0.684896732,0.507943272,0.610379737,0.258684489,0.146640481,11.33358108,0.810288281,0.414885053,1.146444179,0.770428921,0.438207312,1.079853978,0.557475637,0.481981803,0.601624843,0.119798105,0.597721416,0.381952096,0.246984184,0.184756265,0.256240127,0.207820017,0.306906249,0
3.653866754,-1.732775773,-0.4119625,6.531896137,11.05328107,-6.629843824,-1.23480952,-0.394587488,-0.263958938,13.19138829,5.014011997,2.958749043,1.373422149,3.104528817,5.469331217,3.606978094,1.45321129,2.166794579,4.243799468,3.96829587,14.356825,0.767942,2.5485,-4.0144,18.33438115,13.06379227,0.398214066,1.136930824,0.395466766,0.442671068,3.425085438,0.543710884,1.071744303,0.281655419,0.327869289,1.435803023,0.433752329,0.785369183,0.3960602,0.403228496,0.374944438,0.17072381,10.63766426,0.823925,0.203733443,0.554181963,0.528592396,0.395295529,0.361291229,0.25413339,0.679670687,0.807202632,0.528491537,0.698229575,0.130274212,0.105847117,0.234581268,0.248875564,0.31395667,0.32990428,0
3.256283953,-1.858181246,-0.295521875,6.00557193,11.15293972,-6.132149105,-1.183932723,-0.453966188,0.474237566,12.91090026,4.559654334,2.731385775,1.50579662,2.931722994,4.971853503,3.027731428,1.550056088,1.750321229,3.911036114,3.768290566,12.641884,0.918101,2.6042,-4.0171,16.26873107,12.01114386,0.400818465,0.277265999,0.378101703,0.56673349,3.397893185,0.76777743,1.045882353,0.69179608,0.713654845,0.895380471,0.219361406,0.628069794,0.32554522,0.546213905,0.170729268,0.26243337,10.19991844,0.59104375,0.245419559,0.704854686,0.452234353,0.553098362,0.595978052,0.04578183,1.275628349,0.231787672,0.404869873,0.577564104,0.078542852,0.49727639,0.185179416,0.178710477,0.495755903,0.086136407,0
2.96108082,-1.290694922,-0.356775781,5.67621777,10.56471429,-6.058228121,-1.189020402,-0.09415393,-0.08011484,12.44058252,4.543824357,2.477875541,1.544846716,2.741257125,4.884169481,3.120812623,1.609259078,1.623267957,3.821718162,3.72685909,12.080627,1.051398,2.8589,-4.0171,17.60662272,11.35243554,0.073051391,0.780139885,0.661929968,0.49501099,2.958721651,0.217973012,1.087408967,0.460883665,0.154340657,1.131064732,0.386176329,0.936943905,0.314964593,0.25702641,0.299083728,0.142669051,10.95884741,0.713551563,0.095349927,0.680251185,0.546845612,0.55991107,0.59185735,0.387900004,1.152721154,0.557692205,0.244445582,0.601202295,0.302247848,0.474459967,0.096871134,0.50485553,0.217116873,0.233143147,0
3.519258555,-0.926558594,-0.505895703,5.883045266,11.17493646,-5.521029121,-1.486051055,-0.095117402,-0.708354672,12.71989227,4.354245797,2.6579602,1.752531418,2.825769662,4.725426217,3.325052285,1.789415554,1.707706225,4.001184422,3.595099208,12.709969,1.051398,2.8589,-5.4313,14.82343708,11.76609053,0.029765262,0.319988809,0.727793165,0.654940533,3.145165317,0.570926146,1.537528951,0.653271688,0.302004609,0.830855244,0.201676998,0.375364292,0.163316043,0.361157804,0.134379842,0.020772071,11.43427176,1.011791406,0.200594228,0.597766669,0.598981566,0.234827788,0.843784496,0.409003813,1.223876413,0.668905152,0.49131521,0.735268818,0.01697533,0.738676195,0.041070862,0.324732454,0.524422784,0.193742257,0
3.515230836,-0.876322656,-0.588794531,5.920133609,11.50862831,-4.821024391,-1.806275535,-0.342164996,-0.629104777,12.77299491,4.475099658,2.624987671,1.869355874,2.972381766,4.7493713,3.413989229,1.787715379,1.843742699,3.908976263,3.744259209,13.563238,1.055999,2.9284,-5.4313,15.62407633,11.84026722,0.065445505,0.165010974,0.473393682,0.698029652,3.264469849,0.748006768,1.70385084,0.530247102,0.765489791,0.962568839,0.275769491,0.433976312,0.06781708,0.070898662,0.221981837,0.147003678,11.48729028,1.177589063,0.312776923,0.781938024,0.302101769,0.209999601,1.220733876,0.522200294,1.44200968,0.499309584,0.620624805,0.618598064,0.144328101,0.518267187,0.083192525,0.297053712,0.540438011,0.089698216,0
3.251735914,-1.314170703,-0.329587109,5.817181375,11.36752,-5.027374637,-1.572092684,-0.169465988,0.171302645,12.69056734,4.427877972,2.768497274,1.774888989,2.998461236,4.75485233,3.326564257,1.729948807,1.837002886,3.768049754,3.866847951,13.563238,1.055999,2.9284,-5.1991,15.17335895,11.63436275,0.362633899,0.215173255,0.335375673,0.557321146,3.397995922,0.433175413,1.549358857,0.794139362,0.655737265,1.065051273,0.247495088,0.359692207,0.172827551,0.210401693,0.103067694,0.147328487,11.56878229,0.659174219,0.213763904,0.532807283,0.427111688,0.412308154,0.571957902,0.557522843,1.376198356,0.471160742,0.324893813,1.013754791,0.279818867,0.76984304,0.24559727,0.681090741,0.266006108,0.196085866,0
2.255168727,-1.088053516,-0.227828516,5.275634855,10.28309627,-5.235670199,-1.350030516,-0.071564828,0.425287906,11.76734193,4.355318772,2.663635559,1.814985901,2.801277899,4.740297446,2.88655754,1.790832444,1.73975853,3.469176453,3.907471919,11.772034,1.111663,3.1725,-5.8245,17.47181267,10.55126971,0.229738586,0.163428922,0.243129397,0.380668783,3.083147298,0.121511102,1.216399164,0.814899853,0.461572765,1.299142115,0.353542846,0.443227558,0.476603179,0.351802955,0.222607089,0.165284623,13.04598139,0.455657031,0.264003458,0.571441085,0.370290367,0.319405963,0.498488097,0.242304995,1.278249051,0.894129098,0.461844833,0.756140141,0.451497386,0.939081952,0.453093096,0.387522152,0.629394463,0.159357453,0
2.021457406,-0.510208203,-0.314409375,4.739353609,10.02796419,-4.847360613,-1.389235555,0.056916785,-0.274002578,11.3421633,4.113655373,2.072379553,1.823893996,2.554895124,4.296420338,2.600349509,1.757448351,1.654202441,3.142761187,3.593829916,11.398115,0.914864,3.1725,-5.8245,15.33752528,9.478707219,0.494054925,0.175482111,0.433025181,0.530782136,2.474487395,0.470089617,1.733694091,0.239224193,0.307736171,0.810184925,0.447751204,0.725258283,0.380291245,0.309041485,0.555162815,0.309176763,11.84684763,0.62881875,0.141528782,0.454275149,0.41803939,0.23507756,0.789187193,0.425394162,1.456098146,0.928056923,0.581110614,0.441404171,0.275252325,0.830200579,0.30396916,0.496186877,0.465596111,0.14607248,0
2.34491718,-0.297134375,-0.371791797,4.395323477,10.60032805,-4.147655152,-1.526453195,0.099509625,-0.631979609,11.56484507,3.57573766,1.971555473,1.590255326,2.368148615,3.617268612,2.67378509,1.579315074,1.417651779,2.994708587,3.074151709,9.476359,0.914864,2.9377,-4.9349,13.98692098,8.790646953,0.127242808,0.338092259,0.519462366,0.358149454,2.241677703,0.79409113,1.471108814,0.584849719,0.54237932,0.880175011,0.193556953,0.575185283,0.288978947,0.081636708,0.568525964,0.344891823,9.895332895,0.743583594,0.225232238,0.617945724,0.224401948,0.12519824,0.477741201,0.300081299,1.335923028,0.715925943,0.679241482,0.150779173,0.365664581,0.623824914,0.047682171,0.178792946,0.477176819,0.25552811,0
2.556939031,-0.542515234,-0.337797266,4.693768996,10.9181583,-3.965246914,-1.640925957,0.048931066,-0.176548426,11.88574831,3.879321566,2.262045968,1.391630958,2.649060751,4.100967662,2.860899697,1.438202137,1.315267693,3.147682038,3.427929715,11.526433,1.055641,2.2671,-4.9349,16.98704206,9.387537992,0.368925918,0.281954219,0.445800633,0.559005517,2.543661738,0.787605034,1.732756468,0.65127142,0.514814133,1.083603791,0.284565213,0.517850409,0.183575988,0.391662154,0.24925461,0.101684159,9.768825922,0.675594531,0.150158847,0.480204283,0.382757272,0.200222013,0.618725995,0.319849448,1.074862542,0.34341891,0.202290658,0.59793676,0.502881911,0.474465537,0.316867212,0.364854041,0.252929227,0.310472151,0
2.701377313,-1.017169141,-0.3337375,5.418544625,10.93207456,-4.642357105,-1.559972035,0.018829742,0.188352855,12.09747855,4.593904634,2.52677664,1.662662958,3.055459715,4.83237347,2.964741997,1.588305727,1.634816909,3.577828311,4.037473168,14.813888,1.086961,3.4772,-6.0389,16.47592408,10.83708925,0.426805075,0.094072958,0.385083806,0.636212315,3.217090904,0.696114119,1.529353582,1.061385207,1.149814985,0.994675404,0.239156233,0.444348088,0.245228376,0.244682289,0.511354188,0.201699494,11.19197613,0.667475,0.04105685,0.338058265,0.467681422,0.334657872,0.51829917,0.388670044,1.423233383,0.535687148,0.346769585,0.504859792,0.735257689,0.764454749,0.42085393,0.300366123,0.1991247,0.19298126,0
2.178892164,-0.985445312,-0.197983594,5.52362582,10.13570322,-5.242104621,-1.269375828,0.120846914,0.205626422,11.63530606,4.853489554,2.489741574,2.017195102,3.011922522,5.150408063,2.932162823,1.82176288,1.965483409,3.662855933,4.18923438,14.813888,1.002175,4.0158,-6.0389,17.66348733,11.04725164,0.250077383,0.440233352,0.573903206,0.608537189,3.020231152,0.04200413,1.916940078,0.481900486,0.754466103,1.06158196,0.482316744,0.691602671,0.227698628,0.556463812,0.524402018,0.311145442,13.43320416,0.395967188,0.171211027,0.388457674,0.105513616,0.225226427,0.724926668,0.347042928,1.565571864,1.18751915,0.443816413,0.864816867,0.087214317,0.983686662,0.433119599,0.497831235,0.501089624,0.22732079,0
2.988694094,-0.93764375,-0.395272266,5.953334277,10.70597218,-5.561730547,-1.402553285,0.080483617,-0.579385336,12.25726912,4.996280828,2.4015317,2.157803523,3.148302782,5.185738028,3.048516436,2.051271613,2.076346509,3.969918595,4.154107448,13.033093,0.828758,4.0158,-5.6917,17.68347933,11.90666855,0.361138117,0.499189192,0.551564602,1.139472647,3.090762217,0.535776271,2.167998817,0.427044515,0.351749315,0.928015941,0.218148392,0.882217458,0.043932103,0.052418274,0.107186168,0.325315374,13.41212625,0.790544531,0.137223635,0.412753277,0.672218659,0.172450027,1.086903537,0.613029004,1.823609176,0.240519696,0.720291534,1.022732084,0.204620588,0.8678484,0.310525663,0.702731895,0.424771091,0.082531642,0
3.504374953,-0.876748047,-0.462608203,6.206257551,11.35689577,-5.145438742,-1.650053871,0.084787313,-0.933046801,12.62541913,5.035391852,2.619657598,2.194661454,3.43220327,5.112412737,3.369748303,2.075265488,2.132288033,4.2024743,4.18205433,15.240634,0.828758,4.1904,-5.6917,18.04273921,12.4125151,0.530209309,0.264459345,0.632482133,0.54695958,3.587171003,1.194798316,2.113092035,0.734033979,0.824150337,1.021228289,0.274882663,0.526907439,0.326139231,0.088207428,0.173624234,0.085874414,13.76989104,0.925216406,0.057621757,0.626694487,0.637284992,0.19323447,1.300341428,0.489718346,1.805765496,0.930482236,0.8021255,1.079967966,0.222928971,0.429970256,0.243920915,0.380596279,0.24230081,0.052357802,0
